"success","timeout","failed_images","failed_audio","failed_video","trial_type","trial_index","time_elapsed","internal_node_id","rt","part","response","stimulus","correct","choices","correct_choice","trial_duration","response_ends_trial","number_of_apertures","number_of_dots","coherent_direction","coherence","opposite_coherence","dot_radius","dot_side_length","dot_life","move_distance","aperture_width","aperture_height","dot_color","dot_color_final","color_change_delay","target_color_proportion","motion_change_delay","dot_shape","background_color","RDK_type","aperture_type","reinsert_type","frame_rate","frame_rate_array","number_of_frames","aperture_center_x","aperture_center_y","fixation_cross","fixation_cross_width","fixation_cross_height","fixation_cross_color","fixation_cross_thickness","border","border_thickness","border_color","canvas_width","canvas_height","correct_response","data_label","task","difficulty","isMatch","association","label"
"true","false","[]","[]","[]","preload","0","4","0.0-0.0","","","","","","","","","","","","","","","","","","","","","","","","","","","","","","","","","","","","","","","","","","","","","","","","","","","",""
"true","","","","","fullscreen","1","132589","0.0-1.0","131209","fullScreen","","","","","","","","","","","","","","","","","","","","","","","","","","","","","","","","","","","","","","","","","","","","","","","","","",""
"","","","","","survey","2","141772","0.0-2.0","8786","survey","{""sex"":""女"",""age"":23,""hands"":""右"",""color_blindness"":""都不是""}","","","","","","","","","","","","","","","","","","","","","","","","","","","","","","","","","","","","","","","","","","","","","","","","",""
"","","","","","survey-text","3","152540","0.0-3.0","10404","color_test","{""Q0"":""be""}","","","","","","","","","","","","","","","","","","","","","","","","","","","","","","","","","","","","","","","","","","","","","","","","",""
"","","","","","html-keyboard-response","4","156604","0.0-4.0","3706","instruction_beginning"," ","
      <div style=""text-align: left; color: white"">
        <h3 style=""text-align: center; font-size: 30px; margin: 0;"">欢迎参与本实验</h3>
          <p>为充分保障您的权利，请确保您已经知晓并同意《参与实验同意书》以及《数据公开知情同意书》，</p>
          <p>如果您未见过上述内容，请咨询实验员 ，</p>
          <p>如果您选择继续实验，则表示您已经清楚两份知情同意书的内容并同意 。</p>
          <p>在整个实验中，您需要完成两项任务，具体的任务要求会在后面说明 ，</p>
          <p>请按空格键进入实验</p >
      </div>","","","","","","","","","","","","","","","","","","","","","","","","","","","","","","","","","","","","","","","","","","","","","","","",""
"","","","","","html-keyboard-response","5","197372","0.0-5.0-0.0","40412","instruction_getThreshold"," ","
      <div style=""text-align: left; color: white; padding: 10px""> 
        <h3 style=""text-align: center; font-size: 30px; margin: 10px"">欢迎进入实验！</h3>
        <p>在正式开始前，我们将通过一个快速测试为您打造专属的难度水平。<p>
        <p>接下来，屏幕上会呈现一些运动的彩色圆点，</p>
        <p>其中一定比例的点 <span style=""font-weight: bold"">一致地水平向左或向右运动</span> ，其余点随机方向运动</p >
        <p>您需要<span style=""font-weight: bold"">忽略点的颜色</span>并在3秒内判断一致的运动方向是向左还是向右:</p >
        <ul>
          <li><span style=""font-weight: bold"">向左</span>，请按键盘 <span style=""font-weight: bold"">左键</span></li>
          <li><span style=""font-weight: bold"">向右</span>，请按键盘 <span style=""font-weight: bold"">右键</span> </li>
        </ul>
        <p>如有疑问请向主试咨询，没有则按下空格键开始</p>
      </div>","","","","","","","","","","","","","","","","","","","","","","","","","","","","","","","","","","","","","","","","","","","","","","","",""
"","","","","","html-keyboard-response","6","198241","0.0-5.0-1.0-0.0-0.0-0.0-0.0-0.0-0.0","null","fixation","null","<p style='font-size: 48px; color: white'>+</p >","","","","","","","","","","","","","","","","","","","","","","","","","","","","","","","","","","","","","","","","","","","","","","","",""
"","","","","","rdk","7","201613","0.0-5.0-1.0-0.0-0.0-0.0-0.0-0.0-1.0","-1","motion_test","","","false","[""ArrowLeft"",""ArrowRight""]","ArrowRight","3000","true","1","100","0","0.15","0","3","1","-1","2","300","300","[""hsl(0, 50%, 50%)"",""hsl(225, 50%, 50%)""]","[""white""]","0","0","0","circle","black","3","2","2","16.744444444444444","[6,17,16,17,17,17,17,16,16,17,17,17,17,16,17,17,17,16,17,17,17,17,17,17,17,17,17,16,17,17,17,17,17,17,17,17,17,17,17,17,17,17,17,17,17,16,17,17,17,16,17,17,17,17,17,17,17,17,17,17,17,17,16,17,17,17,17,17,16,17,17,17,16,17,17,17,17,16,17,17,17,17,16,17,17,16,17,16,17,17,17,17,17,17,17,17,17,16,18,16,17,17,16,16,17,17,16,17,17,17,16,17,16,17,17,17,17,17,17,17,17,17,17,17,17,17,17,17,17,16,17,17,17,16,17,17,16,17,16,17,17,17,17,16,17,17,16,17,16,17,17,16,17,16,17,17,17,17,17,18,16,16,17,16,17,17,17,16,17,17,16,17,17,17,17,17,17,17,17,16]","180","960","482","false","20","20","black","1","false","1","1","1920","964","ArrowRight","staircase_motion","","","","",""
"","","","","","html-keyboard-response","8","202483","0.0-5.0-1.0-0.0-0.0-0.0-0.0-0.0-2.0","null","","null","<p style='font-size: 60px; color: yellow'>太慢!</p>","","","","","","","","","","","","","","","","","","","","","","","","","","","","","","","","","","","","","","","","","","","","","","","",""
"","","","","","html-keyboard-response","9","203356","0.0-5.0-1.0-0.0-0.0-0.0-0.0-0.0-0.1","null","fixation","null","<p style='font-size: 48px; color: white'>+</p >","","","","","","","","","","","","","","","","","","","","","","","","","","","","","","","","","","","","","","","","","","","","","","","",""
"","","","","","rdk","10","204683","0.0-5.0-1.0-0.0-0.0-0.0-0.0-0.0-1.1","957","motion_test","arrowright","","true","[""ArrowLeft"",""ArrowRight""]","ArrowRight","3000","true","1","100","0","0.15","0","3","1","-1","2","300","300","[""hsl(0, 50%, 50%)"",""hsl(225, 50%, 50%)""]","[""white""]","0","0","0","circle","black","3","2","2","16.56896551724138","[2,17,17,17,16,17,16,17,16,17,17,17,17,17,17,17,17,17,17,17,17,17,17,17,17,16,17,17,17,16,17,17,16,17,17,16,17,17,17,17,17,17,17,17,17,16,17,16,17,17,17,17,17,16,17,17,17,17]","58","960","482","false","20","20","black","1","false","1","1","1920","964","ArrowRight","staircase_motion","","","","",""
"","","","","","html-keyboard-response","11","205550","0.0-5.0-1.0-0.0-0.0-0.0-0.0-0.0-2.1","null","","null","<p style='font-size: 60px; color: green'>正确!</p>","","","","","","","","","","","","","","","","","","","","","","","","","","","","","","","","","","","","","","","","","","","","","","","",""
"","","","","","html-keyboard-response","12","206419","0.0-5.0-1.0-0.0-0.0-0.0-0.0-0.0-0.2","null","fixation","null","<p style='font-size: 48px; color: white'>+</p >","","","","","","","","","","","","","","","","","","","","","","","","","","","","","","","","","","","","","","","","","","","","","","","",""
"","","","","","rdk","13","207899","0.0-5.0-1.0-0.0-0.0-0.0-0.0-0.0-1.2","1122","motion_test","arrowright","","false","[""ArrowLeft"",""ArrowRight""]","ArrowLeft","3000","true","1","100","180","0.15","0","3","1","-1","2","300","300","[""hsl(0, 50%, 50%)"",""hsl(225, 50%, 50%)""]","[""white""]","0","0","0","circle","black","3","2","2","16.61764705882353","[2,17,17,16,17,16,17,16,17,17,17,17,17,17,16,17,17,17,17,17,17,17,17,17,17,17,17,17,17,16,17,17,17,17,17,17,17,17,17,16,17,17,16,17,17,17,17,17,16,17,17,17,17,17,17,17,17,16,17,17,16,17,17,17,16,17,17,17]","68","960","482","false","20","20","black","1","false","1","1","1920","964","ArrowLeft","staircase_motion","","","","",""
"","","","","","html-keyboard-response","14","208767","0.0-5.0-1.0-0.0-0.0-0.0-0.0-0.0-2.2","null","","null","<p style='font-size: 60px; color: red'>错误!</p>","","","","","","","","","","","","","","","","","","","","","","","","","","","","","","","","","","","","","","","","","","","","","","","",""
"","","","","","html-keyboard-response","15","209634","0.0-5.0-1.0-0.0-0.0-0.0-0.0-0.0-0.3","null","fixation","null","<p style='font-size: 48px; color: white'>+</p >","","","","","","","","","","","","","","","","","","","","","","","","","","","","","","","","","","","","","","","","","","","","","","","",""
"","","","","","rdk","16","211396","0.0-5.0-1.0-0.0-0.0-0.0-0.0-0.0-1.3","1395","motion_test","arrowleft","","true","[""ArrowLeft"",""ArrowRight""]","ArrowLeft","3000","true","1","100","180","0.15","0","3","1","-1","2","300","300","[""hsl(0, 50%, 50%)"",""hsl(225, 50%, 50%)""]","[""white""]","0","0","0","circle","black","3","2","2","16.83132530120482","[12,17,17,17,16,17,17,17,17,17,17,17,17,17,17,16,17,17,17,16,17,18,16,16,17,17,17,17,17,17,17,17,17,17,17,17,17,17,17,17,17,17,17,17,17,17,17,17,17,16,17,17,16,17,17,16,17,17,17,17,17,17,17,17,17,17,17,17,16,17,17,17,17,17,17,17,17,17,17,17,17,17,16]","83","960","482","false","20","20","black","1","false","1","1","1920","964","ArrowLeft","staircase_motion","","","","",""
"","","","","","html-keyboard-response","17","212266","0.0-5.0-1.0-0.0-0.0-0.0-0.0-0.0-2.3","null","","null","<p style='font-size: 60px; color: green'>正确!</p>","","","","","","","","","","","","","","","","","","","","","","","","","","","","","","","","","","","","","","","","","","","","","","","",""
"","","","","","html-keyboard-response","18","213132","0.0-5.0-1.0-0.0-0.0-0.0-0.0-0.0-0.4","null","fixation","null","<p style='font-size: 48px; color: white'>+</p >","","","","","","","","","","","","","","","","","","","","","","","","","","","","","","","","","","","","","","","","","","","","","","","",""
"","","","","","rdk","19","214996","0.0-5.0-1.0-0.0-0.0-0.0-0.0-0.0-1.4","1503","motion_test","arrowleft","","true","[""ArrowLeft"",""ArrowRight""]","ArrowLeft","3000","true","1","100","180","0.15","0","3","1","-1","2","300","300","[""hsl(0, 50%, 50%)"",""hsl(225, 50%, 50%)""]","[""white""]","0","0","0","circle","black","3","2","2","16.755555555555556","[4,16,17,17,17,16,17,17,16,17,17,17,17,17,17,16,17,17,17,17,17,17,17,17,18,16,17,17,17,17,17,17,17,17,17,17,17,17,16,17,17,17,17,16,17,17,17,17,17,17,17,17,17,17,17,18,16,17,17,17,17,17,17,17,17,17,17,17,17,17,16,17,17,17,17,17,17,17,17,17,17,17,17,17,16,17,17,16,17,17]","90","960","482","false","20","20","black","1","false","1","1","1920","964","ArrowLeft","staircase_motion","","","","",""
"","","","","","html-keyboard-response","20","215867","0.0-5.0-1.0-0.0-0.0-0.0-0.0-0.0-2.4","null","","null","<p style='font-size: 60px; color: green'>正确!</p>","","","","","","","","","","","","","","","","","","","","","","","","","","","","","","","","","","","","","","","","","","","","","","","",""
"","","","","","html-keyboard-response","21","216732","0.0-5.0-1.0-0.0-0.0-0.0-0.0-0.0-0.5","null","fixation","null","<p style='font-size: 48px; color: white'>+</p >","","","","","","","","","","","","","","","","","","","","","","","","","","","","","","","","","","","","","","","","","","","","","","","",""
"","","","","","rdk","22","217748","0.0-5.0-1.0-0.0-0.0-0.0-0.0-0.0-1.5","647","motion_test","arrowleft","","true","[""ArrowLeft"",""ArrowRight""]","ArrowLeft","3000","true","1","100","180","0.15","0","3","1","-1","2","300","300","[""hsl(0, 50%, 50%)"",""hsl(225, 50%, 50%)""]","[""white""]","0","0","0","circle","black","3","2","2","16.76923076923077","[12,17,17,17,17,17,17,16,17,17,17,17,17,16,17,17,17,17,17,17,17,16,17,17,17,17,17,17,16,17,17,17,17,17,17,17,17,17,17]","39","960","482","false","20","20","black","1","false","1","1","1920","964","ArrowLeft","staircase_motion","","","","",""
"","","","","","html-keyboard-response","23","218617","0.0-5.0-1.0-0.0-0.0-0.0-0.0-0.0-2.5","null","","null","<p style='font-size: 60px; color: green'>正确!</p>","","","","","","","","","","","","","","","","","","","","","","","","","","","","","","","","","","","","","","","","","","","","","","","",""
"","","","","","html-keyboard-response","24","219483","0.0-5.0-1.0-0.0-0.0-0.0-0.0-0.0-0.6","null","fixation","null","<p style='font-size: 48px; color: white'>+</p >","","","","","","","","","","","","","","","","","","","","","","","","","","","","","","","","","","","","","","","","","","","","","","","",""
"","","","","","rdk","25","221396","0.0-5.0-1.0-0.0-0.0-0.0-0.0-0.0-1.6","1551","motion_test","arrowleft","","false","[""ArrowLeft"",""ArrowRight""]","ArrowRight","3000","true","1","100","0","0.15","0","3","1","-1","2","300","300","[""hsl(0, 50%, 50%)"",""hsl(225, 50%, 50%)""]","[""white""]","0","0","0","circle","black","3","2","2","16.741935483870968","[1,17,17,17,17,17,17,18,16,17,17,17,16,17,17,17,17,17,17,17,17,17,17,17,17,17,17,17,17,17,17,17,17,17,17,17,17,17,18,16,17,17,17,16,17,17,17,17,16,17,16,17,17,17,17,17,17,17,17,16,17,17,17,17,16,17,17,17,17,18,16,17,17,17,17,17,17,17,17,17,17,16,17,17,17,17,17,17,16,17,17,17,17]","93","960","482","false","20","20","black","1","false","1","1","1920","964","ArrowRight","staircase_motion","","","","",""
"","","","","","html-keyboard-response","26","222267","0.0-5.0-1.0-0.0-0.0-0.0-0.0-0.0-2.6","null","","null","<p style='font-size: 60px; color: red'>错误!</p>","","","","","","","","","","","","","","","","","","","","","","","","","","","","","","","","","","","","","","","","","","","","","","","",""
"","","","","","html-keyboard-response","27","223132","0.0-5.0-1.0-0.0-0.0-0.0-0.0-0.0-0.7","null","fixation","null","<p style='font-size: 48px; color: white'>+</p >","","","","","","","","","","","","","","","","","","","","","","","","","","","","","","","","","","","","","","","","","","","","","","","",""
"","","","","","rdk","28","225212","0.0-5.0-1.0-0.0-0.0-0.0-0.0-0.0-1.7","1720","motion_test","arrowright","","true","[""ArrowLeft"",""ArrowRight""]","ArrowRight","3000","true","1","100","0","0.15","0","3","1","-1","2","300","300","[""hsl(0, 50%, 50%)"",""hsl(225, 50%, 50%)""]","[""white""]","0","0","0","circle","black","3","2","2","16.689320388349515","[3,17,17,18,16,16,17,17,17,17,17,17,16,17,16,17,17,17,17,17,17,17,17,17,17,17,16,17,17,16,17,17,17,17,16,17,17,17,17,17,17,16,17,16,17,17,17,17,17,17,17,17,16,17,16,17,17,17,17,16,17,16,17,17,17,17,17,17,16,17,17,17,17,17,17,17,16,17,16,17,17,17,16,17,17,17,17,16,17,17,17,17,17,17,16,17,17,17,17,17,17,17,17]","103","960","482","false","20","20","black","1","false","1","1","1920","964","ArrowRight","staircase_motion","","","","",""
"","","","","","html-keyboard-response","29","226085","0.0-5.0-1.0-0.0-0.0-0.0-0.0-0.0-2.7","null","","null","<p style='font-size: 60px; color: green'>正确!</p>","","","","","","","","","","","","","","","","","","","","","","","","","","","","","","","","","","","","","","","","","","","","","","","",""
"","","","","","html-keyboard-response","30","226949","0.0-5.0-1.0-0.0-0.0-0.0-0.0-0.0-0.8","null","fixation","null","<p style='font-size: 48px; color: white'>+</p >","","","","","","","","","","","","","","","","","","","","","","","","","","","","","","","","","","","","","","","","","","","","","","","",""
"","","","","","rdk","31","228259","0.0-5.0-1.0-0.0-0.0-0.0-0.0-0.0-1.8","949","motion_test","arrowleft","","true","[""ArrowLeft"",""ArrowRight""]","ArrowLeft","3000","true","1","100","180","0.15","0","3","1","-1","2","300","300","[""hsl(0, 50%, 50%)"",""hsl(225, 50%, 50%)""]","[""white""]","0","0","0","circle","black","3","2","2","16.649122807017545","[3,15,17,17,17,17,17,17,17,17,17,17,17,16,17,17,16,18,16,17,17,17,17,17,17,17,16,17,17,17,17,16,17,17,17,17,17,17,17,17,17,17,17,17,17,17,17,18,16,17,17,17,17,17,17,17,17]","57","960","482","false","20","20","black","1","false","1","1","1920","964","ArrowLeft","staircase_motion","","","","",""
"","","","","","html-keyboard-response","32","229134","0.0-5.0-1.0-0.0-0.0-0.0-0.0-0.0-2.8","null","","null","<p style='font-size: 60px; color: green'>正确!</p>","","","","","","","","","","","","","","","","","","","","","","","","","","","","","","","","","","","","","","","","","","","","","","","",""
"","","","","","html-keyboard-response","33","230001","0.0-5.0-1.0-0.0-0.0-0.0-0.0-0.0-0.9","null","fixation","null","<p style='font-size: 48px; color: white'>+</p >","","","","","","","","","","","","","","","","","","","","","","","","","","","","","","","","","","","","","","","","","","","","","","","",""
"","","","","","rdk","34","231092","0.0-5.0-1.0-0.0-0.0-0.0-0.0-0.0-1.9","732","motion_test","arrowleft","","true","[""ArrowLeft"",""ArrowRight""]","ArrowLeft","3000","true","1","100","180","0.15","0","3","1","-1","2","300","300","[""hsl(0, 50%, 50%)"",""hsl(225, 50%, 50%)""]","[""white""]","0","0","0","circle","black","3","2","2","16.5","[2,17,17,17,17,17,17,17,17,17,17,17,16,17,17,17,17,17,16,17,17,17,16,17,17,17,16,17,16,17,17,17,16,17,17,17,17,17,16,17,17,17,17,17]","44","960","482","false","20","20","black","1","false","1","1","1920","964","ArrowLeft","staircase_motion","","","","",""
"","","","","","html-keyboard-response","35","231951","0.0-5.0-1.0-0.0-0.0-0.0-0.0-0.0-2.9","null","","null","<p style='font-size: 60px; color: green'>正确!</p>","","","","","","","","","","","","","","","","","","","","","","","","","","","","","","","","","","","","","","","","","","","","","","","",""
"","","","","","html-keyboard-response","36","232829","0.0-5.0-1.0-0.0-0.0-0.0-0.0-0.0-0.10","null","fixation","null","<p style='font-size: 48px; color: white'>+</p >","","","","","","","","","","","","","","","","","","","","","","","","","","","","","","","","","","","","","","","","","","","","","","","",""
"","","","","","rdk","37","234164","0.0-5.0-1.0-0.0-0.0-0.0-0.0-0.0-1.10","970","motion_test","arrowleft","","false","[""ArrowLeft"",""ArrowRight""]","ArrowRight","3000","true","1","100","0","0.15","0","3","1","-1","2","300","300","[""hsl(0, 50%, 50%)"",""hsl(225, 50%, 50%)""]","[""white""]","0","0","0","circle","black","3","2","2","16.896551724137932","[18,17,17,17,17,17,17,17,17,17,16,17,17,16,17,17,17,17,17,17,17,17,17,17,17,17,17,17,17,16,17,17,16,17,17,17,17,17,17,17,17,17,17,17,17,17,17,16,17,17,17,17,16,17,17,17,16,17]","58","960","482","false","20","20","black","1","false","1","1","1920","964","ArrowRight","staircase_motion","","","","",""
"","","","","","html-keyboard-response","38","235034","0.0-5.0-1.0-0.0-0.0-0.0-0.0-0.0-2.10","null","","null","<p style='font-size: 60px; color: red'>错误!</p>","","","","","","","","","","","","","","","","","","","","","","","","","","","","","","","","","","","","","","","","","","","","","","","",""
"","","","","","html-keyboard-response","39","235903","0.0-5.0-1.0-0.0-0.0-0.0-0.0-0.0-0.11","null","fixation","null","<p style='font-size: 48px; color: white'>+</p >","","","","","","","","","","","","","","","","","","","","","","","","","","","","","","","","","","","","","","","","","","","","","","","",""
"","","","","","rdk","40","236867","0.0-5.0-1.0-0.0-0.0-0.0-0.0-0.0-1.11","606","motion_test","arrowleft","","false","[""ArrowLeft"",""ArrowRight""]","ArrowRight","3000","true","1","100","0","0.15","0","3","1","-1","2","300","300","[""hsl(0, 50%, 50%)"",""hsl(225, 50%, 50%)""]","[""white""]","0","0","0","circle","black","3","2","2","16.88888888888889","[18,17,17,16,17,17,17,16,17,16,17,17,17,17,17,17,17,16,17,17,17,17,17,17,17,17,17,17,17,16,17,17,17,17,17,17]","36","960","482","false","20","20","black","1","false","1","1","1920","964","ArrowRight","staircase_motion","","","","",""
"","","","","","html-keyboard-response","41","237749","0.0-5.0-1.0-0.0-0.0-0.0-0.0-0.0-2.11","null","","null","<p style='font-size: 60px; color: red'>错误!</p>","","","","","","","","","","","","","","","","","","","","","","","","","","","","","","","","","","","","","","","","","","","","","","","",""
"","","","","","html-keyboard-response","42","240112","0.0-5.0-1.0-0.0-0.0-0.0-0.0-1.0","null","","null","<p style='font-size: 35px; color: white'>您的正确率为： 58% 。平均反应时为：1013毫秒。</p>","","","","","","","","","","","","","","","","","","","","","","","","","","","","","","","","","","","","","","","","","","","","","","","",""
"","","","","","html-keyboard-response","43","240971","0.0-5.0-1.0-0.0-0.0-1.0-0.0-0.0-0.0","null","fixation","null","<p style='font-size: 48px; color: white'>+</p >","","","","","","","","","","","","","","","","","","","","","","","","","","","","","","","","","","","","","","","","","","","","","","","",""
"","","","","","rdk","44","242819","0.0-5.0-1.0-0.0-0.0-1.0-0.0-0.0-1.0","1477","motion_test","arrowleft","","true","[""ArrowLeft"",""ArrowRight""]","ArrowLeft","3000","true","1","100","180","0.11","0","3","1","-1","2","300","300","[""hsl(0, 50%, 50%)"",""hsl(225, 50%, 50%)""]","[""white""]","0","0","0","circle","black","3","2","2","16.741573033707866","[4,16,17,17,16,16,17,17,17,16,17,17,17,17,17,17,17,17,17,17,17,17,17,17,17,17,17,17,18,16,17,17,17,17,17,17,17,17,17,17,17,17,17,17,17,17,17,17,17,17,17,17,16,17,17,17,17,17,17,17,16,17,17,17,17,17,17,17,17,17,17,17,17,17,17,16,17,17,17,17,16,17,17,16,17,17,16,17,17]","89","960","482","false","20","20","black","1","false","1","1","1920","964","ArrowLeft","staircase_motion","","","","",""
"","","","","","html-keyboard-response","45","243685","0.0-5.0-1.0-0.0-0.0-1.0-0.0-0.0-2.0","null","","null","<p style='font-size: 60px; color: green'>正确!</p>","","","","","","","","","","","","","","","","","","","","","","","","","","","","","","","","","","","","","","","","","","","","","","","",""
"","","","","","html-keyboard-response","46","244554","0.0-5.0-1.0-0.0-0.0-1.0-0.0-0.0-0.1","null","fixation","null","<p style='font-size: 48px; color: white'>+</p >","","","","","","","","","","","","","","","","","","","","","","","","","","","","","","","","","","","","","","","","","","","","","","","",""
"","","","","","rdk","47","245651","0.0-5.0-1.0-0.0-0.0-1.0-0.0-0.0-1.1","739","motion_test","arrowright","","true","[""ArrowLeft"",""ArrowRight""]","ArrowRight","3000","true","1","100","0","0.11","0","3","1","-1","2","300","300","[""hsl(0, 50%, 50%)"",""hsl(225, 50%, 50%)""]","[""white""]","0","0","0","circle","black","3","2","2","16.930232558139537","[17,17,17,17,17,17,17,17,17,17,17,17,17,17,17,17,17,17,16,17,17,17,17,17,17,17,17,17,18,16,16,17,17,17,17,17,17,16,17,17,17,17,17]","43","960","482","false","20","20","black","1","false","1","1","1920","964","ArrowRight","staircase_motion","","","","",""
"","","","","","html-keyboard-response","48","246517","0.0-5.0-1.0-0.0-0.0-1.0-0.0-0.0-2.1","null","","null","<p style='font-size: 60px; color: green'>正确!</p>","","","","","","","","","","","","","","","","","","","","","","","","","","","","","","","","","","","","","","","","","","","","","","","",""
"","","","","","html-keyboard-response","49","247382","0.0-5.0-1.0-0.0-0.0-1.0-0.0-0.0-0.2","null","fixation","null","<p style='font-size: 48px; color: white'>+</p >","","","","","","","","","","","","","","","","","","","","","","","","","","","","","","","","","","","","","","","","","","","","","","","",""
"","","","","","rdk","50","248587","0.0-5.0-1.0-0.0-0.0-1.0-0.0-0.0-1.2","844","motion_test","arrowleft","","true","[""ArrowLeft"",""ArrowRight""]","ArrowLeft","3000","true","1","100","180","0.11","0","3","1","-1","2","300","300","[""hsl(0, 50%, 50%)"",""hsl(225, 50%, 50%)""]","[""white""]","0","0","0","circle","black","3","2","2","16.58823529411765","[2,17,17,17,17,16,17,16,17,17,17,17,18,16,17,17,17,17,17,17,17,17,17,17,17,17,17,17,16,17,17,17,17,17,17,17,17,17,16,17,17,17,17,16,17,17,17,17,17,16,17]","51","960","482","false","20","20","black","1","false","1","1","1920","964","ArrowLeft","staircase_motion","","","","",""
"","","","","","html-keyboard-response","51","249451","0.0-5.0-1.0-0.0-0.0-1.0-0.0-0.0-2.2","null","","null","<p style='font-size: 60px; color: green'>正确!</p>","","","","","","","","","","","","","","","","","","","","","","","","","","","","","","","","","","","","","","","","","","","","","","","",""
"","","","","","html-keyboard-response","52","250331","0.0-5.0-1.0-0.0-0.0-1.0-0.0-0.0-0.3","null","fixation","null","<p style='font-size: 48px; color: white'>+</p >","","","","","","","","","","","","","","","","","","","","","","","","","","","","","","","","","","","","","","","","","","","","","","","",""
"","","","","","rdk","53","253123","0.0-5.0-1.0-0.0-0.0-1.0-0.0-0.0-1.3","2437","motion_test","arrowleft","","false","[""ArrowLeft"",""ArrowRight""]","ArrowRight","3000","true","1","100","0","0.11","0","3","1","-1","2","300","300","[""hsl(0, 50%, 50%)"",""hsl(225, 50%, 50%)""]","[""white""]","0","0","0","circle","black","3","2","2","16.84931506849315","[9,17,17,17,16,17,16,17,17,16,17,17,17,17,17,18,16,17,16,17,17,17,17,17,16,17,16,17,17,17,16,17,17,17,17,17,17,17,17,17,16,17,16,17,17,17,16,17,17,17,17,17,17,17,17,17,17,17,17,17,17,17,17,17,17,17,17,17,16,17,17,17,17,17,16,17,17,17,17,17,17,17,17,17,17,17,17,17,17,17,17,17,17,17,17,17,17,17,17,17,17,17,17,17,17,17,17,16,17,17,17,17,17,17,17,17,17,17,17,17,17,17,17,17,17,17,17,17,16,17,17,17,17,17,17,17,17,17,17,17,17,17,17,17,17,17]","146","960","482","false","20","20","black","1","false","1","1","1920","964","ArrowRight","staircase_motion","","","","",""
"","","","","","html-keyboard-response","54","254001","0.0-5.0-1.0-0.0-0.0-1.0-0.0-0.0-2.3","null","","null","<p style='font-size: 60px; color: red'>错误!</p>","","","","","","","","","","","","","","","","","","","","","","","","","","","","","","","","","","","","","","","","","","","","","","","",""
"","","","","","html-keyboard-response","55","254867","0.0-5.0-1.0-0.0-0.0-1.0-0.0-0.0-0.4","null","fixation","null","<p style='font-size: 48px; color: white'>+</p >","","","","","","","","","","","","","","","","","","","","","","","","","","","","","","","","","","","","","","","","","","","","","","","",""
"","","","","","rdk","56","256291","0.0-5.0-1.0-0.0-0.0-1.0-0.0-0.0-1.4","1064","motion_test","arrowright","","false","[""ArrowLeft"",""ArrowRight""]","ArrowLeft","3000","true","1","100","180","0.11","0","3","1","-1","2","300","300","[""hsl(0, 50%, 50%)"",""hsl(225, 50%, 50%)""]","[""white""]","0","0","0","circle","black","3","2","2","16.75","[3,15,17,17,17,17,17,17,17,17,17,17,17,17,17,17,17,18,16,17,17,17,17,17,17,17,17,17,17,17,17,17,17,17,17,17,17,17,17,17,17,17,17,17,17,17,17,18,16,17,17,17,17,17,17,17,17,17,17,17,17,17,17,17]","64","960","482","false","20","20","black","1","false","1","1","1920","964","ArrowLeft","staircase_motion","","","","",""
"","","","","","html-keyboard-response","57","257167","0.0-5.0-1.0-0.0-0.0-1.0-0.0-0.0-2.4","null","","null","<p style='font-size: 60px; color: red'>错误!</p>","","","","","","","","","","","","","","","","","","","","","","","","","","","","","","","","","","","","","","","","","","","","","","","",""
"","","","","","html-keyboard-response","58","258049","0.0-5.0-1.0-0.0-0.0-1.0-0.0-0.0-0.5","null","fixation","null","<p style='font-size: 48px; color: white'>+</p >","","","","","","","","","","","","","","","","","","","","","","","","","","","","","","","","","","","","","","","","","","","","","","","",""
"","","","","","rdk","59","258987","0.0-5.0-1.0-0.0-0.0-1.0-0.0-0.0-1.5","570","motion_test","arrowleft","","false","[""ArrowLeft"",""ArrowRight""]","ArrowRight","3000","true","1","100","0","0.11","0","3","1","-1","2","300","300","[""hsl(0, 50%, 50%)"",""hsl(225, 50%, 50%)""]","[""white""]","0","0","0","circle","black","3","2","2","16.705882352941178","[11,17,17,17,17,17,17,17,17,16,17,16,17,17,17,17,17,17,17,17,17,17,17,17,16,17,17,17,17,17,17,17,16,17]","34","960","482","false","20","20","black","1","false","1","1","1920","964","ArrowRight","staircase_motion","","","","",""
"","","","","","html-keyboard-response","60","259852","0.0-5.0-1.0-0.0-0.0-1.0-0.0-0.0-2.5","null","","null","<p style='font-size: 60px; color: red'>错误!</p>","","","","","","","","","","","","","","","","","","","","","","","","","","","","","","","","","","","","","","","","","","","","","","","",""
"","","","","","html-keyboard-response","61","260717","0.0-5.0-1.0-0.0-0.0-1.0-0.0-0.0-0.6","null","fixation","null","<p style='font-size: 48px; color: white'>+</p >","","","","","","","","","","","","","","","","","","","","","","","","","","","","","","","","","","","","","","","","","","","","","","","",""
"","","","","","rdk","62","262107","0.0-5.0-1.0-0.0-0.0-1.0-0.0-0.0-1.6","1034","motion_test","arrowright","","true","[""ArrowLeft"",""ArrowRight""]","ArrowRight","3000","true","1","100","0","0.11","0","3","1","-1","2","300","300","[""hsl(0, 50%, 50%)"",""hsl(225, 50%, 50%)""]","[""white""]","0","0","0","circle","black","3","2","2","16.725806451612904","[5,17,17,17,17,17,17,17,17,17,17,17,17,16,17,17,17,17,17,17,16,17,17,17,17,17,17,17,17,17,17,17,17,18,16,17,16,17,17,17,17,17,17,17,17,17,17,17,17,16,17,16,17,17,17,17,17,17,17,17,17,17]","62","960","482","false","20","20","black","1","false","1","1","1920","964","ArrowRight","staircase_motion","","","","",""
"","","","","","html-keyboard-response","63","262981","0.0-5.0-1.0-0.0-0.0-1.0-0.0-0.0-2.6","null","","null","<p style='font-size: 60px; color: green'>正确!</p>","","","","","","","","","","","","","","","","","","","","","","","","","","","","","","","","","","","","","","","","","","","","","","","",""
"","","","","","html-keyboard-response","64","263850","0.0-5.0-1.0-0.0-0.0-1.0-0.0-0.0-0.7","null","fixation","null","<p style='font-size: 48px; color: white'>+</p >","","","","","","","","","","","","","","","","","","","","","","","","","","","","","","","","","","","","","","","","","","","","","","","",""
"","","","","","rdk","65","266459","0.0-5.0-1.0-0.0-0.0-1.0-0.0-0.0-1.7","2240","motion_test","arrowleft","","true","[""ArrowLeft"",""ArrowRight""]","ArrowLeft","3000","true","1","100","180","0.11","0","3","1","-1","2","300","300","[""hsl(0, 50%, 50%)"",""hsl(225, 50%, 50%)""]","[""white""]","0","0","0","circle","black","3","2","2","16.87313432835821","[10,17,17,17,17,17,17,16,17,17,17,17,16,17,17,17,17,16,17,17,17,17,17,17,17,17,16,17,17,17,17,16,17,17,17,17,17,17,17,17,17,17,17,17,17,17,17,17,17,17,17,17,17,17,17,17,17,17,17,17,17,17,17,17,17,17,17,17,17,17,17,17,17,17,17,17,17,17,17,17,17,17,17,17,17,17,17,17,17,17,17,17,17,17,17,17,16,17,16,17,17,16,17,17,17,17,17,17,17,17,17,17,16,17,17,17,17,17,17,17,17,17,17,17,17,17,16,17,17,17,17,17,17,17]","134","960","482","false","20","20","black","1","false","1","1","1920","964","ArrowLeft","staircase_motion","","","","",""
"","","","","","html-keyboard-response","66","267333","0.0-5.0-1.0-0.0-0.0-1.0-0.0-0.0-2.7","null","","null","<p style='font-size: 60px; color: green'>正确!</p>","","","","","","","","","","","","","","","","","","","","","","","","","","","","","","","","","","","","","","","","","","","","","","","",""
"","","","","","html-keyboard-response","67","268206","0.0-5.0-1.0-0.0-0.0-1.0-0.0-0.0-0.8","null","fixation","null","<p style='font-size: 48px; color: white'>+</p >","","","","","","","","","","","","","","","","","","","","","","","","","","","","","","","","","","","","","","","","","","","","","","","",""
"","","","","","rdk","68","270555","0.0-5.0-1.0-0.0-0.0-1.0-0.0-0.0-1.8","1989","motion_test","arrowleft","","true","[""ArrowLeft"",""ArrowRight""]","ArrowLeft","3000","true","1","100","180","0.11","0","3","1","-1","2","300","300","[""hsl(0, 50%, 50%)"",""hsl(225, 50%, 50%)""]","[""white""]","0","0","0","circle","black","3","2","2","16.823529411764707","[12,17,17,16,17,17,17,17,17,17,17,18,16,17,17,16,17,17,17,17,17,16,17,16,17,17,16,17,17,17,17,17,17,17,16,17,17,17,16,17,16,17,16,17,17,17,17,16,17,17,17,16,17,17,17,17,17,17,17,17,16,17,17,17,17,17,17,17,17,17,17,17,18,16,17,17,17,17,17,17,17,17,17,17,17,17,17,16,17,17,17,17,17,17,17,17,17,17,17,17,17,17,17,16,17,17,17,17,16,17,17,17,16,17,17,17,17,17,17]","119","960","482","false","20","20","black","1","false","1","1","1920","964","ArrowLeft","staircase_motion","","","","",""
"","","","","","html-keyboard-response","69","271433","0.0-5.0-1.0-0.0-0.0-1.0-0.0-0.0-2.8","null","","null","<p style='font-size: 60px; color: green'>正确!</p>","","","","","","","","","","","","","","","","","","","","","","","","","","","","","","","","","","","","","","","","","","","","","","","",""
"","","","","","html-keyboard-response","70","272309","0.0-5.0-1.0-0.0-0.0-1.0-0.0-0.0-0.9","null","fixation","null","<p style='font-size: 48px; color: white'>+</p >","","","","","","","","","","","","","","","","","","","","","","","","","","","","","","","","","","","","","","","","","","","","","","","",""
"","","","","","rdk","71","274675","0.0-5.0-1.0-0.0-0.0-1.0-0.0-0.0-1.9","2007","motion_test","arrowleft","","false","[""ArrowLeft"",""ArrowRight""]","ArrowRight","3000","true","1","100","0","0.11","0","3","1","-1","2","300","300","[""hsl(0, 50%, 50%)"",""hsl(225, 50%, 50%)""]","[""white""]","0","0","0","circle","black","3","2","2","16.866666666666667","[10,17,17,17,16,17,17,17,17,17,17,17,17,17,17,16,17,17,17,17,17,17,17,17,17,17,17,17,17,17,17,17,17,17,16,17,17,17,17,17,17,16,17,17,17,17,17,17,17,17,17,16,17,17,17,17,17,17,17,17,17,17,17,16,17,17,17,16,17,17,17,17,17,17,17,17,17,17,17,17,17,17,17,17,17,17,16,17,17,17,17,17,17,17,17,17,17,17,17,17,17,17,17,17,17,17,17,17,17,17,17,16,17,17,17,17,17,17,17,17]","120","960","482","false","20","20","black","1","false","1","1","1920","964","ArrowRight","staircase_motion","","","","",""
"","","","","","html-keyboard-response","72","275551","0.0-5.0-1.0-0.0-0.0-1.0-0.0-0.0-2.9","null","","null","<p style='font-size: 60px; color: red'>错误!</p>","","","","","","","","","","","","","","","","","","","","","","","","","","","","","","","","","","","","","","","","","","","","","","","",""
"","","","","","html-keyboard-response","73","276412","0.0-5.0-1.0-0.0-0.0-1.0-0.0-0.0-0.10","null","fixation","null","<p style='font-size: 48px; color: white'>+</p >","","","","","","","","","","","","","","","","","","","","","","","","","","","","","","","","","","","","","","","","","","","","","","","",""
"","","","","","rdk","74","278755","0.0-5.0-1.0-0.0-0.0-1.0-0.0-0.0-1.10","1984","motion_test","arrowright","","true","[""ArrowLeft"",""ArrowRight""]","ArrowRight","3000","true","1","100","0","0.11","0","3","1","-1","2","300","300","[""hsl(0, 50%, 50%)"",""hsl(225, 50%, 50%)""]","[""white""]","0","0","0","circle","black","3","2","2","16.831932773109244","[8,16,17,17,17,17,17,17,17,17,17,17,17,17,16,17,17,17,17,17,17,17,16,17,16,17,17,17,17,17,17,17,17,17,17,17,17,16,18,16,16,17,17,17,17,16,17,17,17,17,17,17,17,17,17,17,17,17,17,17,17,17,17,16,17,17,17,17,17,16,17,17,17,17,17,17,17,16,17,17,17,17,17,17,17,17,17,17,17,17,16,17,17,17,17,17,17,17,17,17,17,17,17,17,17,17,17,17,17,17,17,17,17,17,17,17,17,17,17]","119","960","482","false","20","20","black","1","false","1","1","1920","964","ArrowRight","staircase_motion","","","","",""
"","","","","","html-keyboard-response","75","279633","0.0-5.0-1.0-0.0-0.0-1.0-0.0-0.0-2.10","null","","null","<p style='font-size: 60px; color: green'>正确!</p>","","","","","","","","","","","","","","","","","","","","","","","","","","","","","","","","","","","","","","","","","","","","","","","",""
"","","","","","html-keyboard-response","76","280504","0.0-5.0-1.0-0.0-0.0-1.0-0.0-0.0-0.11","null","fixation","null","<p style='font-size: 48px; color: white'>+</p >","","","","","","","","","","","","","","","","","","","","","","","","","","","","","","","","","","","","","","","","","","","","","","","",""
"","","","","","rdk","77","281603","0.0-5.0-1.0-0.0-0.0-1.0-0.0-0.0-1.11","743","motion_test","arrowleft","","true","[""ArrowLeft"",""ArrowRight""]","ArrowLeft","3000","true","1","100","180","0.11","0","3","1","-1","2","300","300","[""hsl(0, 50%, 50%)"",""hsl(225, 50%, 50%)""]","[""white""]","0","0","0","circle","black","3","2","2","16.555555555555557","[1,17,17,17,17,18,16,17,17,17,17,17,17,17,17,17,17,17,17,17,17,17,17,17,17,17,17,17,16,17,17,17,16,17,17,16,17,17,17,16,17,17,17,17,17]","45","960","482","false","20","20","black","1","false","1","1","1920","964","ArrowLeft","staircase_motion","","","","",""
"","","","","","html-keyboard-response","78","282482","0.0-5.0-1.0-0.0-0.0-1.0-0.0-0.0-2.11","null","","null","<p style='font-size: 60px; color: green'>正确!</p>","","","","","","","","","","","","","","","","","","","","","","","","","","","","","","","","","","","","","","","","","","","","","","","",""
"","","","","","html-keyboard-response","79","284848","0.0-5.0-1.0-0.0-0.0-1.0-0.0-1.0","null","","null","<p style='font-size: 35px; color: white'>您的正确率为： 67% 。平均反应时为：1427毫秒。</p>","","","","","","","","","","","","","","","","","","","","","","","","","","","","","","","","","","","","","","","","","","","","","","","",""
"","","","","","html-keyboard-response","80","285719","0.0-5.0-1.0-0.0-0.0-2.0-0.0-0.0-0.0","null","fixation","null","<p style='font-size: 48px; color: white'>+</p >","","","","","","","","","","","","","","","","","","","","","","","","","","","","","","","","","","","","","","","","","","","","","","","",""
"","","","","","rdk","81","288195","0.0-5.0-1.0-0.0-0.0-2.0-0.0-0.0-1.0","2119","motion_test","arrowleft","","false","[""ArrowLeft"",""ArrowRight""]","ArrowRight","3000","true","1","100","0","0.08","0","3","1","-1","2","300","300","[""hsl(0, 50%, 50%)"",""hsl(225, 50%, 50%)""]","[""white""]","0","0","0","circle","black","3","2","2","16.80314960629921","[3,16,17,17,17,17,17,17,17,17,17,16,17,17,17,17,17,17,17,17,17,17,17,17,17,17,16,17,17,17,17,17,16,17,17,17,17,17,17,16,17,17,17,16,17,17,17,17,17,17,17,17,17,16,17,17,18,16,17,17,17,17,17,17,17,17,17,17,17,17,17,16,17,17,17,17,17,17,17,17,17,17,17,17,17,16,18,16,17,17,17,16,17,17,17,17,17,17,17,17,17,17,17,17,17,17,17,17,17,17,17,17,17,17,17,17,17,18,16,17,17,17,17,16,17,17,17]","127","960","482","false","20","20","black","1","false","1","1","1920","964","ArrowRight","staircase_motion","","","","",""
"","","","","","html-keyboard-response","82","289068","0.0-5.0-1.0-0.0-0.0-2.0-0.0-0.0-2.0","null","","null","<p style='font-size: 60px; color: red'>错误!</p>","","","","","","","","","","","","","","","","","","","","","","","","","","","","","","","","","","","","","","","","","","","","","","","",""
"","","","","","html-keyboard-response","83","289932","0.0-5.0-1.0-0.0-0.0-2.0-0.0-0.0-0.1","null","fixation","null","<p style='font-size: 48px; color: white'>+</p >","","","","","","","","","","","","","","","","","","","","","","","","","","","","","","","","","","","","","","","","","","","","","","","",""
"","","","","","rdk","84","291164","0.0-5.0-1.0-0.0-0.0-2.0-0.0-0.0-1.1","873","motion_test","arrowright","","false","[""ArrowLeft"",""ArrowRight""]","ArrowLeft","3000","true","1","100","180","0.08","0","3","1","-1","2","300","300","[""hsl(0, 50%, 50%)"",""hsl(225, 50%, 50%)""]","[""white""]","0","0","0","circle","black","3","2","2","16.641509433962263","[4,17,17,17,17,17,17,17,17,16,17,17,17,17,17,17,18,16,17,16,17,17,17,17,17,17,16,17,17,17,17,17,16,17,17,16,17,17,16,17,17,17,17,17,17,16,17,18,16,17,17,17,18]","53","960","482","false","20","20","black","1","false","1","1","1920","964","ArrowLeft","staircase_motion","","","","",""
"","","","","","html-keyboard-response","85","292034","0.0-5.0-1.0-0.0-0.0-2.0-0.0-0.0-2.1","null","","null","<p style='font-size: 60px; color: red'>错误!</p>","","","","","","","","","","","","","","","","","","","","","","","","","","","","","","","","","","","","","","","","","","","","","","","",""
"","","","","","html-keyboard-response","86","292917","0.0-5.0-1.0-0.0-0.0-2.0-0.0-0.0-0.2","null","fixation","null","<p style='font-size: 48px; color: white'>+</p >","","","","","","","","","","","","","","","","","","","","","","","","","","","","","","","","","","","","","","","","","","","","","","","",""
"","","","","","rdk","87","294323","0.0-5.0-1.0-0.0-0.0-2.0-0.0-0.0-1.2","1040","motion_test","arrowright","","false","[""ArrowLeft"",""ArrowRight""]","ArrowLeft","3000","true","1","100","180","0.08","0","3","1","-1","2","300","300","[""hsl(0, 50%, 50%)"",""hsl(225, 50%, 50%)""]","[""white""]","0","0","0","circle","black","3","2","2","16.838709677419356","[12,17,17,17,17,17,17,17,17,17,17,17,17,17,17,17,17,18,16,17,17,17,17,17,17,16,17,17,17,17,17,17,17,17,17,16,17,17,16,17,17,17,17,17,17,17,17,17,17,17,17,17,17,17,17,17,17,16,17,16,17,17]","62","960","482","false","20","20","black","1","false","1","1","1920","964","ArrowLeft","staircase_motion","","","","",""
"","","","","","html-keyboard-response","88","295199","0.0-5.0-1.0-0.0-0.0-2.0-0.0-0.0-2.2","null","","null","<p style='font-size: 60px; color: red'>错误!</p>","","","","","","","","","","","","","","","","","","","","","","","","","","","","","","","","","","","","","","","","","","","","","","","",""
"","","","","","html-keyboard-response","89","296066","0.0-5.0-1.0-0.0-0.0-2.0-0.0-0.0-0.3","null","fixation","null","<p style='font-size: 48px; color: white'>+</p >","","","","","","","","","","","","","","","","","","","","","","","","","","","","","","","","","","","","","","","","","","","","","","","",""
"","","","","","rdk","90","297875","0.0-5.0-1.0-0.0-0.0-2.0-0.0-0.0-1.3","1450","motion_test","arrowleft","","false","[""ArrowLeft"",""ArrowRight""]","ArrowRight","3000","true","1","100","0","0.08","0","3","1","-1","2","300","300","[""hsl(0, 50%, 50%)"",""hsl(225, 50%, 50%)""]","[""white""]","0","0","0","circle","black","3","2","2","16.67816091954023","[3,17,17,17,17,17,17,17,17,17,16,18,16,17,16,17,17,16,17,17,17,16,17,17,16,17,17,17,17,17,17,17,17,17,17,17,17,17,16,17,17,18,16,17,17,17,17,17,17,17,17,17,17,17,16,17,17,17,17,17,16,17,17,16,17,17,17,17,17,17,17,18,16,17,16,17,17,16,16,17,16,17,17,17,17,17,16]","87","960","482","false","20","20","black","1","false","1","1","1920","964","ArrowRight","staircase_motion","","","","",""
"","","","","","html-keyboard-response","91","298748","0.0-5.0-1.0-0.0-0.0-2.0-0.0-0.0-2.3","null","","null","<p style='font-size: 60px; color: red'>错误!</p>","","","","","","","","","","","","","","","","","","","","","","","","","","","","","","","","","","","","","","","","","","","","","","","",""
"","","","","","html-keyboard-response","92","299617","0.0-5.0-1.0-0.0-0.0-2.0-0.0-0.0-0.4","null","fixation","null","<p style='font-size: 48px; color: white'>+</p >","","","","","","","","","","","","","","","","","","","","","","","","","","","","","","","","","","","","","","","","","","","","","","","",""
"","","","","","rdk","93","301835","0.0-5.0-1.0-0.0-0.0-2.0-0.0-0.0-1.4","1859","motion_test","arrowleft","","false","[""ArrowLeft"",""ArrowRight""]","ArrowRight","3000","true","1","100","0","0.08","0","3","1","-1","2","300","300","[""hsl(0, 50%, 50%)"",""hsl(225, 50%, 50%)""]","[""white""]","0","0","0","circle","black","3","2","2","16.732142857142858","[4,15,17,17,17,17,17,17,17,17,16,17,16,17,17,16,17,17,16,17,17,17,17,17,17,16,17,17,17,17,17,17,17,17,17,17,17,16,17,17,16,16,17,17,17,17,17,17,17,17,17,16,17,16,17,16,17,17,17,17,17,17,17,17,17,17,17,17,17,17,17,17,17,17,17,17,17,16,17,17,17,17,17,17,17,17,17,17,17,17,17,17,17,17,17,16,17,17,17,17,16,16,17,17,17,17,17,17,17,17,17,17]","112","960","482","false","20","20","black","1","false","1","1","1920","964","ArrowRight","staircase_motion","","","","",""
"","","","","","html-keyboard-response","94","302701","0.0-5.0-1.0-0.0-0.0-2.0-0.0-0.0-2.4","null","","null","<p style='font-size: 60px; color: red'>错误!</p>","","","","","","","","","","","","","","","","","","","","","","","","","","","","","","","","","","","","","","","","","","","","","","","",""
"","","","","","html-keyboard-response","95","303575","0.0-5.0-1.0-0.0-0.0-2.0-0.0-0.0-0.5","null","fixation","null","<p style='font-size: 48px; color: white'>+</p >","","","","","","","","","","","","","","","","","","","","","","","","","","","","","","","","","","","","","","","","","","","","","","","",""
"","","","","","rdk","96","305011","0.0-5.0-1.0-0.0-0.0-2.0-0.0-0.0-1.5","1078","motion_test","arrowright","","false","[""ArrowLeft"",""ArrowRight""]","ArrowLeft","3000","true","1","100","180","0.08","0","3","1","-1","2","300","300","[""hsl(0, 50%, 50%)"",""hsl(225, 50%, 50%)""]","[""white""]","0","0","0","circle","black","3","2","2","16.890625","[12,17,17,17,17,17,17,17,17,17,17,17,17,17,17,17,16,17,16,17,17,17,17,17,17,17,17,17,17,17,17,17,17,17,17,17,17,17,17,17,17,17,17,17,18,16,17,17,17,17,17,17,17,17,17,17,17,17,17,17,17,17,17,17]","64","960","482","false","20","20","black","1","false","1","1","1920","964","ArrowLeft","staircase_motion","","","","",""
"","","","","","html-keyboard-response","97","305882","0.0-5.0-1.0-0.0-0.0-2.0-0.0-0.0-2.5","null","","null","<p style='font-size: 60px; color: red'>错误!</p>","","","","","","","","","","","","","","","","","","","","","","","","","","","","","","","","","","","","","","","","","","","","","","","",""
"","","","","","html-keyboard-response","98","306750","0.0-5.0-1.0-0.0-0.0-2.0-0.0-0.0-0.6","null","fixation","null","<p style='font-size: 48px; color: white'>+</p >","","","","","","","","","","","","","","","","","","","","","","","","","","","","","","","","","","","","","","","","","","","","","","","",""
"","","","","","rdk","99","308987","0.0-5.0-1.0-0.0-0.0-2.0-0.0-0.0-1.6","1870","motion_test","arrowleft","","false","[""ArrowLeft"",""ArrowRight""]","ArrowRight","3000","true","1","100","0","0.08","0","3","1","-1","2","300","300","[""hsl(0, 50%, 50%)"",""hsl(225, 50%, 50%)""]","[""white""]","0","0","0","circle","black","3","2","2","16.883928571428573","[12,17,17,17,17,17,17,17,17,17,17,17,17,17,17,17,17,17,17,17,17,17,17,17,17,16,17,17,16,17,17,17,16,17,17,17,18,16,16,17,17,17,17,17,17,17,17,17,17,17,17,17,17,17,17,17,17,17,17,17,17,17,17,17,17,17,17,17,17,17,16,17,16,17,17,17,17,17,17,17,17,17,17,17,17,17,17,16,17,17,17,17,17,17,17,17,17,17,17,17,17,17,17,17,17,17,16,17,17,17,17,17]","112","960","482","false","20","20","black","1","false","1","1","1920","964","ArrowRight","staircase_motion","","","","",""
"","","","","","html-keyboard-response","100","309850","0.0-5.0-1.0-0.0-0.0-2.0-0.0-0.0-2.6","null","","null","<p style='font-size: 60px; color: red'>错误!</p>","","","","","","","","","","","","","","","","","","","","","","","","","","","","","","","","","","","","","","","","","","","","","","","",""
"","","","","","html-keyboard-response","101","310723","0.0-5.0-1.0-0.0-0.0-2.0-0.0-0.0-0.7","null","fixation","null","<p style='font-size: 48px; color: white'>+</p >","","","","","","","","","","","","","","","","","","","","","","","","","","","","","","","","","","","","","","","","","","","","","","","",""
"","","","","","rdk","102","311611","0.0-5.0-1.0-0.0-0.0-2.0-0.0-0.0-1.7","517","motion_test","arrowleft","","true","[""ArrowLeft"",""ArrowRight""]","ArrowLeft","3000","true","1","100","180","0.08","0","3","1","-1","2","300","300","[""hsl(0, 50%, 50%)"",""hsl(225, 50%, 50%)""]","[""white""]","0","0","0","circle","black","3","2","2","16.29032258064516","[1,17,17,17,17,16,17,16,17,17,17,17,17,17,16,17,17,16,17,16,17,18,16,17,17,16,17,17,17,17,17]","31","960","482","false","20","20","black","1","false","1","1","1920","964","ArrowLeft","staircase_motion","","","","",""
"","","","","","html-keyboard-response","103","312483","0.0-5.0-1.0-0.0-0.0-2.0-0.0-0.0-2.7","null","","null","<p style='font-size: 60px; color: green'>正确!</p>","","","","","","","","","","","","","","","","","","","","","","","","","","","","","","","","","","","","","","","","","","","","","","","",""
"","","","","","html-keyboard-response","104","313351","0.0-5.0-1.0-0.0-0.0-2.0-0.0-0.0-0.8","null","fixation","null","<p style='font-size: 48px; color: white'>+</p >","","","","","","","","","","","","","","","","","","","","","","","","","","","","","","","","","","","","","","","","","","","","","","","",""
"","","","","","rdk","105","315163","0.0-5.0-1.0-0.0-0.0-2.0-0.0-0.0-1.8","1446","motion_test","arrowleft","","true","[""ArrowLeft"",""ArrowRight""]","ArrowLeft","3000","true","1","100","180","0.08","0","3","1","-1","2","300","300","[""hsl(0, 50%, 50%)"",""hsl(225, 50%, 50%)""]","[""white""]","0","0","0","circle","black","3","2","2","16.79310344827586","[11,17,17,17,17,17,17,16,17,17,17,17,17,17,17,16,17,17,17,17,17,17,17,17,17,17,17,17,17,16,17,17,17,17,17,17,17,17,16,16,17,17,17,17,17,17,17,17,17,17,17,17,17,16,17,17,16,17,17,16,17,17,17,17,17,17,17,17,17,17,17,17,17,17,17,17,17,16,17,16,17,16,17,16,17,17,17]","87","960","482","false","20","20","black","1","false","1","1","1920","964","ArrowLeft","staircase_motion","","","","",""
"","","","","","html-keyboard-response","106","316033","0.0-5.0-1.0-0.0-0.0-2.0-0.0-0.0-2.8","null","","null","<p style='font-size: 60px; color: green'>正确!</p>","","","","","","","","","","","","","","","","","","","","","","","","","","","","","","","","","","","","","","","","","","","","","","","",""
"","","","","","html-keyboard-response","107","316904","0.0-5.0-1.0-0.0-0.0-2.0-0.0-0.0-0.9","null","fixation","null","<p style='font-size: 48px; color: white'>+</p >","","","","","","","","","","","","","","","","","","","","","","","","","","","","","","","","","","","","","","","","","","","","","","","",""
"","","","","","rdk","108","319627","0.0-5.0-1.0-0.0-0.0-2.0-0.0-0.0-1.9","2367","motion_test","arrowleft","","false","[""ArrowLeft"",""ArrowRight""]","ArrowRight","3000","true","1","100","0","0.08","0","3","1","-1","2","300","300","[""hsl(0, 50%, 50%)"",""hsl(225, 50%, 50%)""]","[""white""]","0","0","0","circle","black","3","2","2","16.661971830985916","[2,17,17,16,17,17,17,16,18,16,17,17,17,17,16,17,17,17,17,17,17,17,17,16,17,17,17,17,17,17,17,17,17,17,16,17,16,17,16,17,17,16,17,17,17,17,16,17,17,17,16,17,17,17,17,17,17,17,17,17,17,16,17,16,17,17,17,17,17,17,17,16,17,16,17,16,17,16,17,17,16,17,16,17,16,17,16,17,17,17,17,17,17,17,16,17,17,17,17,17,17,17,16,17,17,17,17,16,17,17,16,17,17,17,17,17,17,17,17,16,17,17,16,17,16,17,16,17,18,15,17,17,17,16,17,16,17,16,17,16,17,17]","142","960","482","false","20","20","black","1","false","1","1","1920","964","ArrowRight","staircase_motion","","","","",""
"","","","","","html-keyboard-response","109","320500","0.0-5.0-1.0-0.0-0.0-2.0-0.0-0.0-2.9","null","","null","<p style='font-size: 60px; color: red'>错误!</p>","","","","","","","","","","","","","","","","","","","","","","","","","","","","","","","","","","","","","","","","","","","","","","","",""
"","","","","","html-keyboard-response","110","321371","0.0-5.0-1.0-0.0-0.0-2.0-0.0-0.0-0.10","null","fixation","null","<p style='font-size: 48px; color: white'>+</p >","","","","","","","","","","","","","","","","","","","","","","","","","","","","","","","","","","","","","","","","","","","","","","","",""
"","","","","","rdk","111","324571","0.0-5.0-1.0-0.0-0.0-2.0-0.0-0.0-1.10","2844","motion_test","arrowright","","true","[""ArrowLeft"",""ArrowRight""]","ArrowRight","3000","true","1","100","0","0.08","0","3","1","-1","2","300","300","[""hsl(0, 50%, 50%)"",""hsl(225, 50%, 50%)""]","[""white""]","0","0","0","circle","black","3","2","2","16.789473684210527","[1,17,17,17,17,17,16,17,17,17,17,17,18,16,17,17,17,16,17,17,17,17,17,17,17,17,17,16,17,17,17,17,17,17,17,17,17,17,17,17,17,17,17,17,17,17,17,16,17,17,17,17,17,17,17,17,17,17,16,17,16,17,17,17,17,17,17,17,17,17,17,17,18,16,17,17,17,17,17,17,17,17,17,17,17,17,17,17,17,17,17,16,17,17,17,17,16,17,17,17,17,16,18,16,16,17,17,17,17,17,17,17,17,17,16,17,17,17,17,17,17,17,17,17,17,17,17,17,16,16,17,17,17,16,17,16,17,16,17,17,17,16,17,17,17,17,17,16,16,17,17,17,17,17,17,17,16,17,17,17,17,17,17,17,17,17,17,17,17,17,17]","171","960","482","false","20","20","black","1","false","1","1","1920","964","ArrowRight","staircase_motion","","","","",""
"","","","","","html-keyboard-response","112","325434","0.0-5.0-1.0-0.0-0.0-2.0-0.0-0.0-2.10","null","","null","<p style='font-size: 60px; color: green'>正确!</p>","","","","","","","","","","","","","","","","","","","","","","","","","","","","","","","","","","","","","","","","","","","","","","","",""
"","","","","","html-keyboard-response","113","326309","0.0-5.0-1.0-0.0-0.0-2.0-0.0-0.0-0.11","null","fixation","null","<p style='font-size: 48px; color: white'>+</p >","","","","","","","","","","","","","","","","","","","","","","","","","","","","","","","","","","","","","","","","","","","","","","","",""
"","","","","","rdk","114","329467","0.0-5.0-1.0-0.0-0.0-2.0-0.0-0.0-1.11","2791","motion_test","arrowright","","false","[""ArrowLeft"",""ArrowRight""]","ArrowLeft","3000","true","1","100","180","0.08","0","3","1","-1","2","300","300","[""hsl(0, 50%, 50%)"",""hsl(225, 50%, 50%)""]","[""white""]","0","0","0","circle","black","3","2","2","16.714285714285715","[2,17,16,17,17,17,17,17,17,17,17,17,16,17,17,17,16,18,16,17,17,16,17,16,17,17,17,16,17,17,17,17,17,17,17,17,17,17,17,16,17,17,17,17,17,17,17,16,17,17,16,17,17,17,17,17,17,17,17,16,17,17,16,17,17,16,17,16,17,17,17,17,17,17,17,17,17,17,17,17,17,16,17,17,17,17,17,17,17,17,17,17,17,17,17,17,17,16,17,17,17,17,17,17,16,17,17,16,17,16,17,16,17,17,16,17,17,17,17,17,17,17,16,17,17,17,17,17,17,16,17,17,17,17,16,17,17,17,16,17,17,16,17,17,17,16,17,17,17,16,17,17,17,16,17,17,17,16,17,16,17,16,17,16,17,16,17,17]","168","960","482","false","20","20","black","1","false","1","1","1920","964","ArrowLeft","staircase_motion","","","","",""
"","","","","","html-keyboard-response","115","330333","0.0-5.0-1.0-0.0-0.0-2.0-0.0-0.0-2.11","null","","null","<p style='font-size: 60px; color: red'>错误!</p>","","","","","","","","","","","","","","","","","","","","","","","","","","","","","","","","","","","","","","","","","","","","","","","",""
"","","","","","html-keyboard-response","116","332696","0.0-5.0-1.0-0.0-0.0-2.0-0.0-1.0","null","","null","<p style='font-size: 35px; color: white'>您的正确率为： 25% 。平均反应时为：1688毫秒。</p>","","","","","","","","","","","","","","","","","","","","","","","","","","","","","","","","","","","","","","","","","","","","","","","",""
"","","","","","html-keyboard-response","117","333573","0.0-5.0-1.0-0.0-0.0-3.0-0.0-0.0-0.0","null","fixation","null","<p style='font-size: 48px; color: white'>+</p >","","","","","","","","","","","","","","","","","","","","","","","","","","","","","","","","","","","","","","","","","","","","","","","",""
"","","","","","rdk","118","336091","0.0-5.0-1.0-0.0-0.0-3.0-0.0-0.0-1.0","2149","motion_test","arrowright","","true","[""ArrowLeft"",""ArrowRight""]","ArrowRight","3000","true","1","100","0","0.03","0","3","1","-1","2","300","300","[""hsl(0, 50%, 50%)"",""hsl(225, 50%, 50%)""]","[""white""]","0","0","0","circle","black","3","2","2","16.790697674418606","[5,15,17,17,17,17,16,18,16,17,17,17,17,17,17,17,16,17,17,17,17,17,17,17,17,17,17,17,17,16,17,17,17,17,16,17,17,17,18,16,17,17,17,17,17,17,16,17,16,17,17,17,17,17,17,17,17,17,17,17,17,17,17,16,17,17,17,17,16,18,16,16,17,16,17,17,17,17,16,17,17,17,17,17,17,17,17,16,17,17,17,17,17,17,17,17,17,17,17,18,16,17,17,17,17,17,17,17,16,17,17,17,17,17,17,17,17,17,17,17,17,17,17,17,17,17,17,17,17]","129","960","482","false","20","20","black","1","false","1","1","1920","964","ArrowRight","staircase_motion","","","","",""
"","","","","","html-keyboard-response","119","336967","0.0-5.0-1.0-0.0-0.0-3.0-0.0-0.0-2.0","null","","null","<p style='font-size: 60px; color: green'>正确!</p>","","","","","","","","","","","","","","","","","","","","","","","","","","","","","","","","","","","","","","","","","","","","","","","",""
"","","","","","html-keyboard-response","120","337840","0.0-5.0-1.0-0.0-0.0-3.0-0.0-0.0-0.1","null","fixation","null","<p style='font-size: 48px; color: white'>+</p >","","","","","","","","","","","","","","","","","","","","","","","","","","","","","","","","","","","","","","","","","","","","","","","",""
"","","","","","rdk","121","340003","0.0-5.0-1.0-0.0-0.0-3.0-0.0-0.0-1.1","1794","motion_test","arrowright","","true","[""ArrowLeft"",""ArrowRight""]","ArrowRight","3000","true","1","100","0","0.03","0","3","1","-1","2","300","300","[""hsl(0, 50%, 50%)"",""hsl(225, 50%, 50%)""]","[""white""]","0","0","0","circle","black","3","2","2","16.675925925925927","[2,17,16,17,17,17,17,16,17,17,17,17,16,17,17,17,16,17,17,16,17,17,17,17,16,17,17,18,16,17,16,17,17,17,17,16,17,17,16,17,16,17,17,17,17,17,17,17,16,17,16,17,17,17,17,17,16,18,16,17,17,17,17,17,17,17,17,16,17,17,17,17,16,17,17,17,17,16,17,17,17,17,17,17,17,17,17,17,18,16,17,16,17,16,17,17,17,16,17,17,17,17,17,16,17,17,17,17]","108","960","482","false","20","20","black","1","false","1","1","1920","964","ArrowRight","staircase_motion","","","","",""
"","","","","","html-keyboard-response","122","340867","0.0-5.0-1.0-0.0-0.0-3.0-0.0-0.0-2.1","null","","null","<p style='font-size: 60px; color: green'>正确!</p>","","","","","","","","","","","","","","","","","","","","","","","","","","","","","","","","","","","","","","","","","","","","","","","",""
"","","","","","html-keyboard-response","123","341732","0.0-5.0-1.0-0.0-0.0-3.0-0.0-0.0-0.2","null","fixation","null","<p style='font-size: 48px; color: white'>+</p >","","","","","","","","","","","","","","","","","","","","","","","","","","","","","","","","","","","","","","","","","","","","","","","",""
"","","","","","rdk","124","344443","0.0-5.0-1.0-0.0-0.0-3.0-0.0-0.0-1.2","2350","motion_test","arrowright","","false","[""ArrowLeft"",""ArrowRight""]","ArrowLeft","3000","true","1","100","180","0.03","0","3","1","-1","2","300","300","[""hsl(0, 50%, 50%)"",""hsl(225, 50%, 50%)""]","[""white""]","0","0","0","circle","black","3","2","2","16.673758865248228","[1,17,17,16,17,17,17,16,17,16,17,17,16,17,16,17,17,17,17,17,17,17,16,17,17,17,17,16,17,16,17,17,17,17,17,17,17,16,17,17,17,17,17,17,17,17,17,17,17,17,17,17,17,17,17,17,17,17,17,17,17,17,16,17,16,17,16,17,17,16,17,16,17,17,17,17,16,17,17,17,16,17,17,17,17,17,16,17,16,17,17,17,17,16,17,16,17,17,17,17,17,17,16,17,17,17,17,17,17,17,16,17,17,17,17,16,17,17,16,17,17,17,17,17,17,16,17,16,17,16,16,17,17,16,17,16,17,17,17,17,17]","141","960","482","false","20","20","black","1","false","1","1","1920","964","ArrowLeft","staircase_motion","","","","",""
"","","","","","html-keyboard-response","125","345316","0.0-5.0-1.0-0.0-0.0-3.0-0.0-0.0-2.2","null","","null","<p style='font-size: 60px; color: red'>错误!</p>","","","","","","","","","","","","","","","","","","","","","","","","","","","","","","","","","","","","","","","","","","","","","","","",""
"","","","","","html-keyboard-response","126","346192","0.0-5.0-1.0-0.0-0.0-3.0-0.0-0.0-0.3","null","fixation","null","<p style='font-size: 48px; color: white'>+</p >","","","","","","","","","","","","","","","","","","","","","","","","","","","","","","","","","","","","","","","","","","","","","","","",""
"","","","","","rdk","127","349562","0.0-5.0-1.0-0.0-0.0-3.0-0.0-0.0-1.3","-1","motion_test","","","false","[""ArrowLeft"",""ArrowRight""]","ArrowLeft","3000","true","1","100","180","0.03","0","3","1","-1","2","300","300","[""hsl(0, 50%, 50%)"",""hsl(225, 50%, 50%)""]","[""white""]","0","0","0","circle","black","3","2","2","16.755555555555556","[3,17,17,17,17,17,17,17,17,17,17,16,18,16,17,17,17,17,17,17,17,16,17,17,17,17,17,17,17,17,17,17,17,17,17,17,17,17,17,16,17,17,17,18,16,17,16,17,17,17,17,17,17,17,17,17,16,17,16,17,17,17,17,17,17,17,16,17,16,17,16,17,17,17,18,16,17,17,17,16,17,16,17,16,17,17,17,16,17,17,17,17,17,17,17,17,17,17,17,17,17,17,17,17,17,18,16,17,17,17,17,17,17,17,16,17,17,17,17,17,17,17,17,17,17,17,17,17,17,16,17,17,16,17,16,17,16,17,16,17,17,17,17,16,17,17,17,17,16,17,17,16,17,17,17,17,17,16,17,17,16,17,16,17,16,18,16,17,16,17,17,17,16,17,16,17,17,16,17,17]","180","960","482","false","20","20","black","1","false","1","1","1920","964","ArrowLeft","staircase_motion","","","","",""
"","","","","","html-keyboard-response","128","350433","0.0-5.0-1.0-0.0-0.0-3.0-0.0-0.0-2.3","null","","null","<p style='font-size: 60px; color: yellow'>太慢!</p>","","","","","","","","","","","","","","","","","","","","","","","","","","","","","","","","","","","","","","","","","","","","","","","",""
"","","","","","html-keyboard-response","129","351299","0.0-5.0-1.0-0.0-0.0-3.0-0.0-0.0-0.4","null","fixation","null","<p style='font-size: 48px; color: white'>+</p >","","","","","","","","","","","","","","","","","","","","","","","","","","","","","","","","","","","","","","","","","","","","","","","",""
"","","","","","rdk","130","353171","0.0-5.0-1.0-0.0-0.0-3.0-0.0-0.0-1.4","1514","motion_test","arrowright","","false","[""ArrowLeft"",""ArrowRight""]","ArrowLeft","3000","true","1","100","180","0.03","0","3","1","-1","2","300","300","[""hsl(0, 50%, 50%)"",""hsl(225, 50%, 50%)""]","[""white""]","0","0","0","circle","black","3","2","2","16.692307692307693","[4,17,17,17,17,17,17,17,17,17,17,17,17,17,17,17,17,17,17,16,17,17,17,16,17,16,17,16,17,17,17,17,17,16,17,16,17,17,17,17,17,17,17,17,16,17,17,17,17,17,16,17,17,17,17,17,17,17,17,17,17,17,16,17,16,17,17,17,17,17,16,17,17,17,16,17,17,17,16,17,16,17,17,17,17,17,17,17,16,17,17]","91","960","482","false","20","20","black","1","false","1","1","1920","964","ArrowLeft","staircase_motion","","","","",""
"","","","","","html-keyboard-response","131","354049","0.0-5.0-1.0-0.0-0.0-3.0-0.0-0.0-2.4","null","","null","<p style='font-size: 60px; color: red'>错误!</p>","","","","","","","","","","","","","","","","","","","","","","","","","","","","","","","","","","","","","","","","","","","","","","","",""
"","","","","","html-keyboard-response","132","354925","0.0-5.0-1.0-0.0-0.0-3.0-0.0-0.0-0.5","null","fixation","null","<p style='font-size: 48px; color: white'>+</p >","","","","","","","","","","","","","","","","","","","","","","","","","","","","","","","","","","","","","","","","","","","","","","","",""
"","","","","","rdk","133","356243","0.0-5.0-1.0-0.0-0.0-3.0-0.0-0.0-1.5","950","motion_test","arrowleft","","false","[""ArrowLeft"",""ArrowRight""]","ArrowRight","3000","true","1","100","0","0.03","0","3","1","-1","2","300","300","[""hsl(0, 50%, 50%)"",""hsl(225, 50%, 50%)""]","[""white""]","0","0","0","circle","black","3","2","2","16.56140350877193","[2,17,17,16,17,17,17,18,16,17,16,17,17,16,17,17,17,17,17,17,17,17,16,17,17,17,17,16,17,16,17,17,17,17,16,17,17,17,16,17,17,17,17,16,17,17,17,17,17,17,16,17,17,17,17,17,17]","57","960","482","false","20","20","black","1","false","1","1","1920","964","ArrowRight","staircase_motion","","","","",""
"","","","","","html-keyboard-response","134","357114","0.0-5.0-1.0-0.0-0.0-3.0-0.0-0.0-2.5","null","","null","<p style='font-size: 60px; color: red'>错误!</p>","","","","","","","","","","","","","","","","","","","","","","","","","","","","","","","","","","","","","","","","","","","","","","","",""
"","","","","","html-keyboard-response","135","357992","0.0-5.0-1.0-0.0-0.0-3.0-0.0-0.0-0.6","null","fixation","null","<p style='font-size: 48px; color: white'>+</p >","","","","","","","","","","","","","","","","","","","","","","","","","","","","","","","","","","","","","","","","","","","","","","","",""
"","","","","","rdk","136","360363","0.0-5.0-1.0-0.0-0.0-3.0-0.0-0.0-1.6","2012","motion_test","arrowleft","","true","[""ArrowLeft"",""ArrowRight""]","ArrowLeft","3000","true","1","100","180","0.03","0","3","1","-1","2","300","300","[""hsl(0, 50%, 50%)"",""hsl(225, 50%, 50%)""]","[""white""]","0","0","0","circle","black","3","2","2","16.85123966942149","[10,17,17,17,17,18,16,17,17,17,17,17,17,17,17,17,17,17,17,17,17,17,17,16,17,16,17,17,17,17,17,17,17,17,17,17,17,17,17,17,17,17,17,17,17,17,16,17,17,17,16,17,17,17,16,17,17,17,17,17,17,17,16,17,17,18,16,17,16,17,17,17,17,17,17,16,17,17,17,17,17,17,17,17,17,17,16,17,17,17,17,17,17,17,17,18,16,17,17,17,17,17,17,17,17,17,17,17,16,17,17,16,17,17,17,17,17,17,17,17,17]","121","960","482","false","20","20","black","1","false","1","1","1920","964","ArrowLeft","staircase_motion","","","","",""
"","","","","","html-keyboard-response","137","361233","0.0-5.0-1.0-0.0-0.0-3.0-0.0-0.0-2.6","null","","null","<p style='font-size: 60px; color: green'>正确!</p>","","","","","","","","","","","","","","","","","","","","","","","","","","","","","","","","","","","","","","","","","","","","","","","",""
"","","","","","html-keyboard-response","138","362104","0.0-5.0-1.0-0.0-0.0-3.0-0.0-0.0-0.7","null","fixation","null","<p style='font-size: 48px; color: white'>+</p >","","","","","","","","","","","","","","","","","","","","","","","","","","","","","","","","","","","","","","","","","","","","","","","",""
"","","","","","rdk","139","363787","0.0-5.0-1.0-0.0-0.0-3.0-0.0-0.0-1.7","1318","motion_test","arrowleft","","false","[""ArrowLeft"",""ArrowRight""]","ArrowRight","3000","true","1","100","0","0.03","0","3","1","-1","2","300","300","[""hsl(0, 50%, 50%)"",""hsl(225, 50%, 50%)""]","[""white""]","0","0","0","circle","black","3","2","2","16.82278481012658","[10,17,17,17,17,17,17,16,17,17,17,17,17,17,17,17,17,17,17,17,17,17,17,17,17,17,17,17,17,17,17,17,17,16,17,17,17,17,17,17,17,17,17,16,17,17,17,17,16,17,17,16,17,17,17,17,17,17,17,17,17,16,17,17,17,17,17,17,17,17,17,17,17,16,17,17,17,17,17]","79","960","482","false","20","20","black","1","false","1","1","1920","964","ArrowRight","staircase_motion","","","","",""
"","","","","","html-keyboard-response","140","364650","0.0-5.0-1.0-0.0-0.0-3.0-0.0-0.0-2.7","null","","null","<p style='font-size: 60px; color: red'>错误!</p>","","","","","","","","","","","","","","","","","","","","","","","","","","","","","","","","","","","","","","","","","","","","","","","",""
"","","","","","html-keyboard-response","141","365514","0.0-5.0-1.0-0.0-0.0-3.0-0.0-0.0-0.8","null","fixation","null","<p style='font-size: 48px; color: white'>+</p >","","","","","","","","","","","","","","","","","","","","","","","","","","","","","","","","","","","","","","","","","","","","","","","",""
"","","","","","rdk","142","366723","0.0-5.0-1.0-0.0-0.0-3.0-0.0-0.0-1.8","847","motion_test","arrowright","","true","[""ArrowLeft"",""ArrowRight""]","ArrowRight","3000","true","1","100","0","0.03","0","3","1","-1","2","300","300","[""hsl(0, 50%, 50%)"",""hsl(225, 50%, 50%)""]","[""white""]","0","0","0","circle","black","3","2","2","16.647058823529413","[3,16,17,17,17,17,17,18,16,17,17,17,17,17,17,17,16,17,16,17,17,17,17,17,17,17,17,17,17,17,17,16,17,17,17,17,17,18,16,17,17,17,17,17,17,17,17,17,17,17,17]","51","960","482","false","20","20","black","1","false","1","1","1920","964","ArrowRight","staircase_motion","","","","",""
"","","","","","html-keyboard-response","143","367599","0.0-5.0-1.0-0.0-0.0-3.0-0.0-0.0-2.8","null","","null","<p style='font-size: 60px; color: green'>正确!</p>","","","","","","","","","","","","","","","","","","","","","","","","","","","","","","","","","","","","","","","","","","","","","","","",""
"","","","","","html-keyboard-response","144","368468","0.0-5.0-1.0-0.0-0.0-3.0-0.0-0.0-0.9","null","fixation","null","<p style='font-size: 48px; color: white'>+</p >","","","","","","","","","","","","","","","","","","","","","","","","","","","","","","","","","","","","","","","","","","","","","","","",""
"","","","","","rdk","145","370771","0.0-5.0-1.0-0.0-0.0-3.0-0.0-0.0-1.9","1944","motion_test","arrowright","","false","[""ArrowLeft"",""ArrowRight""]","ArrowLeft","3000","true","1","100","180","0.03","0","3","1","-1","2","300","300","[""hsl(0, 50%, 50%)"",""hsl(225, 50%, 50%)""]","[""white""]","0","0","0","circle","black","3","2","2","16.743589743589745","[1,17,17,17,16,17,17,18,15,17,17,16,18,16,17,17,17,17,17,17,17,17,17,17,17,17,17,17,16,17,17,16,17,17,17,17,17,17,16,17,17,17,17,18,16,17,17,16,17,16,17,17,17,17,17,17,17,17,17,17,17,17,17,17,17,17,17,17,17,16,17,16,17,18,16,17,17,17,17,17,16,17,17,17,17,17,17,17,17,17,17,17,17,17,17,17,17,17,16,17,17,17,17,17,17,17,16,17,17,16,17,17,17,17,17,17,17]","117","960","482","false","20","20","black","1","false","1","1","1920","964","ArrowLeft","staircase_motion","","","","",""
"","","","","","html-keyboard-response","146","371634","0.0-5.0-1.0-0.0-0.0-3.0-0.0-0.0-2.9","null","","null","<p style='font-size: 60px; color: red'>错误!</p>","","","","","","","","","","","","","","","","","","","","","","","","","","","","","","","","","","","","","","","","","","","","","","","",""
"","","","","","html-keyboard-response","147","372504","0.0-5.0-1.0-0.0-0.0-3.0-0.0-0.0-0.10","null","fixation","null","<p style='font-size: 48px; color: white'>+</p >","","","","","","","","","","","","","","","","","","","","","","","","","","","","","","","","","","","","","","","","","","","","","","","",""
"","","","","","rdk","148","373707","0.0-5.0-1.0-0.0-0.0-3.0-0.0-0.0-1.10","847","motion_test","arrowright","","true","[""ArrowLeft"",""ArrowRight""]","ArrowRight","3000","true","1","100","0","0.03","0","3","1","-1","2","300","300","[""hsl(0, 50%, 50%)"",""hsl(225, 50%, 50%)""]","[""white""]","0","0","0","circle","black","3","2","2","16.607843137254903","[1,17,17,17,17,17,17,16,17,17,16,17,18,16,16,17,17,17,17,17,17,17,17,17,17,17,17,17,17,17,17,17,17,17,17,17,17,17,17,17,17,17,18,16,17,16,17,17,17,17,17]","51","960","482","false","20","20","black","1","false","1","1","1920","964","ArrowRight","staircase_motion","","","","",""
"","","","","","html-keyboard-response","149","374585","0.0-5.0-1.0-0.0-0.0-3.0-0.0-0.0-2.10","null","","null","<p style='font-size: 60px; color: green'>正确!</p>","","","","","","","","","","","","","","","","","","","","","","","","","","","","","","","","","","","","","","","","","","","","","","","",""
"","","","","","html-keyboard-response","150","375451","0.0-5.0-1.0-0.0-0.0-3.0-0.0-0.0-0.11","null","fixation","null","<p style='font-size: 48px; color: white'>+</p >","","","","","","","","","","","","","","","","","","","","","","","","","","","","","","","","","","","","","","","","","","","","","","","",""
"","","","","","rdk","151","376899","0.0-5.0-1.0-0.0-0.0-3.0-0.0-0.0-1.11","1088","motion_test","arrowright","","false","[""ArrowLeft"",""ArrowRight""]","ArrowLeft","3000","true","1","100","180","0.03","0","3","1","-1","2","300","300","[""hsl(0, 50%, 50%)"",""hsl(225, 50%, 50%)""]","[""white""]","0","0","0","circle","black","3","2","2","16.907692307692308","[18,17,17,17,17,17,17,17,17,17,17,17,17,16,17,17,17,17,17,17,17,16,17,17,17,17,17,17,17,17,17,17,17,16,17,17,16,17,17,17,17,17,17,17,17,17,17,17,16,17,17,17,17,16,17,17,17,17,17,17,17,17,17,17,16]","65","960","482","false","20","20","black","1","false","1","1","1920","964","ArrowLeft","staircase_motion","","","","",""
"","","","","","html-keyboard-response","152","377766","0.0-5.0-1.0-0.0-0.0-3.0-0.0-0.0-2.11","null","","null","<p style='font-size: 60px; color: red'>错误!</p>","","","","","","","","","","","","","","","","","","","","","","","","","","","","","","","","","","","","","","","","","","","","","","","",""
"","","","","","html-keyboard-response","153","380141","0.0-5.0-1.0-0.0-0.0-3.0-0.0-1.0","null","","null","<p style='font-size: 35px; color: white'>您的正确率为： 42% 。平均反应时为：1401毫秒。</p>","","","","","","","","","","","","","","","","","","","","","","","","","","","","","","","","","","","","","","","","","","","","","","","",""
"","","","","","html-keyboard-response","154","381014","0.0-5.0-1.0-0.0-0.0-4.0-0.0-0.0-0.0","null","fixation","null","<p style='font-size: 48px; color: white'>+</p >","","","","","","","","","","","","","","","","","","","","","","","","","","","","","","","","","","","","","","","","","","","","","","","",""
"","","","","","rdk","155","383347","0.0-5.0-1.0-0.0-0.0-4.0-0.0-0.0-1.0","1963","motion_test","arrowright","","false","[""ArrowLeft"",""ArrowRight""]","ArrowLeft","3000","true","1","100","180","0.12","0","3","1","-1","2","300","300","[""hsl(0, 50%, 50%)"",""hsl(225, 50%, 50%)""]","[""white""]","0","0","0","circle","black","3","2","2","16.88135593220339","[10,17,16,17,17,17,17,17,17,17,17,17,17,17,17,17,17,17,17,17,17,17,17,17,17,17,17,17,17,17,17,17,17,17,17,17,17,16,17,17,17,17,17,17,17,16,17,17,17,17,17,17,17,17,17,17,17,17,17,17,17,17,17,16,17,17,17,17,17,17,17,17,17,17,17,17,17,17,16,17,17,17,16,17,17,17,17,17,17,17,17,17,17,17,17,16,17,17,17,17,17,17,17,17,17,17,17,17,17,17,17,17,17,17,17,17,17,17]","118","960","482","false","20","20","black","1","false","1","1","1920","964","ArrowLeft","staircase_motion","","","","",""
"","","","","","html-keyboard-response","156","384216","0.0-5.0-1.0-0.0-0.0-4.0-0.0-0.0-2.0","null","","null","<p style='font-size: 60px; color: red'>错误!</p>","","","","","","","","","","","","","","","","","","","","","","","","","","","","","","","","","","","","","","","","","","","","","","","",""
"","","","","","html-keyboard-response","157","385100","0.0-5.0-1.0-0.0-0.0-4.0-0.0-0.0-0.1","null","fixation","null","<p style='font-size: 48px; color: white'>+</p >","","","","","","","","","","","","","","","","","","","","","","","","","","","","","","","","","","","","","","","","","","","","","","","",""
"","","","","","rdk","158","387059","0.0-5.0-1.0-0.0-0.0-4.0-0.0-0.0-1.1","1598","motion_test","arrowleft","","false","[""ArrowLeft"",""ArrowRight""]","ArrowRight","3000","true","1","100","0","0.12","0","3","1","-1","2","300","300","[""hsl(0, 50%, 50%)"",""hsl(225, 50%, 50%)""]","[""white""]","0","0","0","circle","black","3","2","2","16.894736842105264","[18,17,17,17,17,17,17,17,17,17,17,17,17,18,16,17,17,17,17,17,17,17,17,17,17,17,17,17,17,17,17,17,16,17,17,17,17,17,17,17,16,17,17,17,17,17,17,17,16,17,17,17,17,17,17,16,17,16,17,16,17,17,17,16,17,17,17,17,17,17,17,17,17,17,17,17,17,17,17,17,17,17,17,17,17,16,17,16,17,17,16,17,16,17,17]","95","960","482","false","20","20","black","1","false","1","1","1920","964","ArrowRight","staircase_motion","","","","",""
"","","","","","html-keyboard-response","159","387932","0.0-5.0-1.0-0.0-0.0-4.0-0.0-0.0-2.1","null","","null","<p style='font-size: 60px; color: red'>错误!</p>","","","","","","","","","","","","","","","","","","","","","","","","","","","","","","","","","","","","","","","","","","","","","","","",""
"","","","","","html-keyboard-response","160","388805","0.0-5.0-1.0-0.0-0.0-4.0-0.0-0.0-0.2","null","fixation","null","<p style='font-size: 48px; color: white'>+</p >","","","","","","","","","","","","","","","","","","","","","","","","","","","","","","","","","","","","","","","","","","","","","","","",""
"","","","","","rdk","161","391531","0.0-5.0-1.0-0.0-0.0-4.0-0.0-0.0-1.2","2361","motion_test","arrowleft","","false","[""ArrowLeft"",""ArrowRight""]","ArrowRight","3000","true","1","100","0","0.12","0","3","1","-1","2","300","300","[""hsl(0, 50%, 50%)"",""hsl(225, 50%, 50%)""]","[""white""]","0","0","0","circle","black","3","2","2","16.838028169014084","[9,17,17,17,16,17,17,16,17,16,17,17,17,17,17,17,16,17,17,17,17,17,17,17,17,17,17,17,17,17,17,17,17,17,17,18,16,17,16,17,17,17,16,17,17,17,17,17,17,17,16,17,17,17,17,17,16,17,17,17,17,17,17,17,17,17,18,16,17,17,17,17,17,17,17,17,17,17,16,17,17,17,17,17,17,17,17,17,16,17,17,17,17,17,17,17,16,18,16,17,17,17,17,17,17,17,17,16,17,17,17,17,17,17,16,17,17,17,17,17,17,17,16,17,17,17,17,17,18,16,17,17,17,17,17,17,17,17,17,17,17,16]","142","960","482","false","20","20","black","1","false","1","1","1920","964","ArrowRight","staircase_motion","","","","",""
"","","","","","html-keyboard-response","162","392401","0.0-5.0-1.0-0.0-0.0-4.0-0.0-0.0-2.2","null","","null","<p style='font-size: 60px; color: red'>错误!</p>","","","","","","","","","","","","","","","","","","","","","","","","","","","","","","","","","","","","","","","","","","","","","","","",""
"","","","","","html-keyboard-response","163","393267","0.0-5.0-1.0-0.0-0.0-4.0-0.0-0.0-0.3","null","fixation","null","<p style='font-size: 48px; color: white'>+</p >","","","","","","","","","","","","","","","","","","","","","","","","","","","","","","","","","","","","","","","","","","","","","","","",""
"","","","","","rdk","164","395299","0.0-5.0-1.0-0.0-0.0-4.0-0.0-0.0-1.3","1672","motion_test","arrowleft","","true","[""ArrowLeft"",""ArrowRight""]","ArrowLeft","3000","true","1","100","180","0.12","0","3","1","-1","2","300","300","[""hsl(0, 50%, 50%)"",""hsl(225, 50%, 50%)""]","[""white""]","0","0","0","circle","black","3","2","2","16.683168316831683","[2,17,16,17,17,17,17,17,17,16,17,17,17,18,16,17,17,17,17,17,17,16,17,17,17,17,17,17,16,17,17,17,17,16,17,16,17,17,17,17,16,17,16,18,16,17,17,17,17,17,17,17,17,17,17,17,17,17,16,17,17,17,17,17,17,16,17,17,17,17,17,17,17,17,17,16,17,17,17,17,16,17,17,17,16,17,17,17,17,17,17,16,17,16,17,16,17,16,17,17,17]","101","960","482","false","20","20","black","1","false","1","1","1920","964","ArrowLeft","staircase_motion","","","","",""
"","","","","","html-keyboard-response","165","396164","0.0-5.0-1.0-0.0-0.0-4.0-0.0-0.0-2.3","null","","null","<p style='font-size: 60px; color: green'>正确!</p>","","","","","","","","","","","","","","","","","","","","","","","","","","","","","","","","","","","","","","","","","","","","","","","",""
"","","","","","html-keyboard-response","166","397027","0.0-5.0-1.0-0.0-0.0-4.0-0.0-0.0-0.4","null","fixation","null","<p style='font-size: 48px; color: white'>+</p >","","","","","","","","","","","","","","","","","","","","","","","","","","","","","","","","","","","","","","","","","","","","","","","",""
"","","","","","rdk","167","399275","0.0-5.0-1.0-0.0-0.0-4.0-0.0-0.0-1.4","1881","motion_test","arrowright","","true","[""ArrowLeft"",""ArrowRight""]","ArrowRight","3000","true","1","100","0","0.12","0","3","1","-1","2","300","300","[""hsl(0, 50%, 50%)"",""hsl(225, 50%, 50%)""]","[""white""]","0","0","0","circle","black","3","2","2","16.910714285714285","[18,17,17,16,17,16,17,17,17,16,17,17,16,17,17,17,17,17,17,17,17,17,17,17,17,16,17,17,18,16,17,17,17,16,17,17,17,16,17,17,17,17,17,17,17,17,16,17,17,17,17,17,17,17,17,17,17,17,18,16,17,17,17,17,17,17,16,17,17,17,16,17,17,17,17,17,17,17,17,17,17,17,17,17,17,17,17,17,17,18,16,17,17,17,16,17,17,17,17,17,17,17,17,17,17,17,17,17,17,17,17,17]","112","960","482","false","20","20","black","1","false","1","1","1920","964","ArrowRight","staircase_motion","","","","",""
"","","","","","html-keyboard-response","168","400150","0.0-5.0-1.0-0.0-0.0-4.0-0.0-0.0-2.4","null","","null","<p style='font-size: 60px; color: green'>正确!</p>","","","","","","","","","","","","","","","","","","","","","","","","","","","","","","","","","","","","","","","","","","","","","","","",""
"","","","","","html-keyboard-response","169","401017","0.0-5.0-1.0-0.0-0.0-4.0-0.0-0.0-0.5","null","fixation","null","<p style='font-size: 48px; color: white'>+</p >","","","","","","","","","","","","","","","","","","","","","","","","","","","","","","","","","","","","","","","","","","","","","","","",""
"","","","","","rdk","170","402498","0.0-5.0-1.0-0.0-0.0-4.0-0.0-0.0-1.5","1124","motion_test","arrowleft","","true","[""ArrowLeft"",""ArrowRight""]","ArrowLeft","3000","true","1","100","180","0.12","0","3","1","-1","2","300","300","[""hsl(0, 50%, 50%)"",""hsl(225, 50%, 50%)""]","[""white""]","0","0","0","circle","black","3","2","2","16.66176470588235","[4,17,17,17,17,17,17,17,17,17,17,17,17,17,17,17,16,17,17,17,17,17,17,17,17,17,17,17,17,16,17,16,18,15,17,17,17,17,17,17,17,17,17,17,17,17,17,17,16,17,17,17,17,17,17,17,16,17,16,17,17,16,18,15,17,17,16,17]","68","960","482","false","20","20","black","1","false","1","1","1920","964","ArrowLeft","staircase_motion","","","","",""
"","","","","","html-keyboard-response","171","403367","0.0-5.0-1.0-0.0-0.0-4.0-0.0-0.0-2.5","null","","null","<p style='font-size: 60px; color: green'>正确!</p>","","","","","","","","","","","","","","","","","","","","","","","","","","","","","","","","","","","","","","","","","","","","","","","",""
"","","","","","html-keyboard-response","172","404232","0.0-5.0-1.0-0.0-0.0-4.0-0.0-0.0-0.6","null","fixation","null","<p style='font-size: 48px; color: white'>+</p >","","","","","","","","","","","","","","","","","","","","","","","","","","","","","","","","","","","","","","","","","","","","","","","",""
"","","","","","rdk","173","407003","0.0-5.0-1.0-0.0-0.0-4.0-0.0-0.0-1.6","2409","motion_test","arrowleft","","true","[""ArrowLeft"",""ArrowRight""]","ArrowLeft","3000","true","1","100","180","0.12","0","3","1","-1","2","300","300","[""hsl(0, 50%, 50%)"",""hsl(225, 50%, 50%)""]","[""white""]","0","0","0","circle","black","3","2","2","16.8","[1,17,17,17,17,16,17,17,17,16,17,17,17,17,17,17,17,17,17,17,17,17,18,16,17,17,17,17,17,17,17,17,17,17,17,17,16,17,17,17,16,17,17,17,16,17,17,17,17,17,16,17,17,17,16,17,17,17,17,16,17,17,17,17,17,17,17,17,17,17,17,17,17,17,17,17,17,17,17,17,17,17,17,17,17,17,16,17,17,17,17,17,17,16,17,17,17,17,17,17,17,17,17,17,17,17,17,17,17,17,17,17,17,17,18,16,16,17,17,17,17,16,17,17,17,17,17,17,17,16,17,17,17,17,17,17,17,17,17,17,17,17,17,17,17]","145","960","482","false","20","20","black","1","false","1","1","1920","964","ArrowLeft","staircase_motion","","","","",""
"","","","","","html-keyboard-response","174","407867","0.0-5.0-1.0-0.0-0.0-4.0-0.0-0.0-2.6","null","","null","<p style='font-size: 60px; color: green'>正确!</p>","","","","","","","","","","","","","","","","","","","","","","","","","","","","","","","","","","","","","","","","","","","","","","","",""
"","","","","","html-keyboard-response","175","408742","0.0-5.0-1.0-0.0-0.0-4.0-0.0-0.0-0.7","null","fixation","null","<p style='font-size: 48px; color: white'>+</p >","","","","","","","","","","","","","","","","","","","","","","","","","","","","","","","","","","","","","","","","","","","","","","","",""
"","","","","","rdk","176","410571","0.0-5.0-1.0-0.0-0.0-4.0-0.0-0.0-1.7","1461","motion_test","arrowleft","","false","[""ArrowLeft"",""ArrowRight""]","ArrowRight","3000","true","1","100","0","0.12","0","3","1","-1","2","300","300","[""hsl(0, 50%, 50%)"",""hsl(225, 50%, 50%)""]","[""white""]","0","0","0","circle","black","3","2","2","16.647727272727273","[2,17,17,17,16,17,17,17,17,17,17,17,17,16,17,16,17,17,16,17,17,17,17,16,17,17,18,16,17,17,17,17,17,17,17,17,17,17,16,17,17,16,17,17,17,17,17,17,17,17,16,17,16,17,17,16,17,17,17,17,17,16,17,17,17,17,17,17,17,17,16,17,17,17,17,16,17,17,16,17,17,17,16,17,17,17,17,16]","88","960","482","false","20","20","black","1","false","1","1","1920","964","ArrowRight","staircase_motion","","","","",""
"","","","","","html-keyboard-response","177","411434","0.0-5.0-1.0-0.0-0.0-4.0-0.0-0.0-2.7","null","","null","<p style='font-size: 60px; color: red'>错误!</p>","","","","","","","","","","","","","","","","","","","","","","","","","","","","","","","","","","","","","","","","","","","","","","","",""
"","","","","","html-keyboard-response","178","412309","0.0-5.0-1.0-0.0-0.0-4.0-0.0-0.0-0.8","null","fixation","null","<p style='font-size: 48px; color: white'>+</p >","","","","","","","","","","","","","","","","","","","","","","","","","","","","","","","","","","","","","","","","","","","","","","","",""
"","","","","","rdk","179","414011","0.0-5.0-1.0-0.0-0.0-4.0-0.0-0.0-1.8","1335","motion_test","arrowright","","true","[""ArrowLeft"",""ArrowRight""]","ArrowRight","3000","true","1","100","0","0.12","0","3","1","-1","2","300","300","[""hsl(0, 50%, 50%)"",""hsl(225, 50%, 50%)""]","[""white""]","0","0","0","circle","black","3","2","2","16.7","[3,16,17,17,17,17,16,17,17,17,17,17,17,17,17,16,17,16,17,17,17,17,17,16,17,17,18,16,17,17,16,17,17,17,17,17,17,17,17,17,17,17,17,17,17,17,17,17,17,17,17,16,17,17,17,17,17,16,17,17,17,17,17,17,17,17,17,17,17,17,17,17,17,16,17,16,17,17,17,17]","80","960","482","false","20","20","black","1","false","1","1","1920","964","ArrowRight","staircase_motion","","","","",""
"","","","","","html-keyboard-response","180","414883","0.0-5.0-1.0-0.0-0.0-4.0-0.0-0.0-2.8","null","","null","<p style='font-size: 60px; color: green'>正确!</p>","","","","","","","","","","","","","","","","","","","","","","","","","","","","","","","","","","","","","","","","","","","","","","","",""
"","","","","","html-keyboard-response","181","415748","0.0-5.0-1.0-0.0-0.0-4.0-0.0-0.0-0.9","null","fixation","null","<p style='font-size: 48px; color: white'>+</p >","","","","","","","","","","","","","","","","","","","","","","","","","","","","","","","","","","","","","","","","","","","","","","","",""
"","","","","","rdk","182","417083","0.0-5.0-1.0-0.0-0.0-4.0-0.0-0.0-1.9","973","motion_test","arrowleft","","true","[""ArrowLeft"",""ArrowRight""]","ArrowLeft","3000","true","1","100","180","0.12","0","3","1","-1","2","300","300","[""hsl(0, 50%, 50%)"",""hsl(225, 50%, 50%)""]","[""white""]","0","0","0","circle","black","3","2","2","16.627118644067796","[2,17,17,17,16,17,17,17,16,17,17,17,17,17,17,17,17,17,17,17,17,17,17,17,17,17,17,17,17,17,16,17,17,17,17,17,16,17,16,17,16,17,17,17,17,17,17,17,17,16,17,17,17,17,17,17,17,17,17]","59","960","482","false","20","20","black","1","false","1","1","1920","964","ArrowLeft","staircase_motion","","","","",""
"","","","","","html-keyboard-response","183","417952","0.0-5.0-1.0-0.0-0.0-4.0-0.0-0.0-2.9","null","","null","<p style='font-size: 60px; color: green'>正确!</p>","","","","","","","","","","","","","","","","","","","","","","","","","","","","","","","","","","","","","","","","","","","","","","","",""
"","","","","","html-keyboard-response","184","418817","0.0-5.0-1.0-0.0-0.0-4.0-0.0-0.0-0.10","null","fixation","null","<p style='font-size: 48px; color: white'>+</p >","","","","","","","","","","","","","","","","","","","","","","","","","","","","","","","","","","","","","","","","","","","","","","","",""
"","","","","","rdk","185","420315","0.0-5.0-1.0-0.0-0.0-4.0-0.0-0.0-1.10","1130","motion_test","arrowleft","","false","[""ArrowLeft"",""ArrowRight""]","ArrowRight","3000","true","1","100","0","0.12","0","3","1","-1","2","300","300","[""hsl(0, 50%, 50%)"",""hsl(225, 50%, 50%)""]","[""white""]","0","0","0","circle","black","3","2","2","16.735294117647058","[11,17,17,17,17,17,17,16,17,17,17,17,17,17,16,17,16,16,17,16,17,16,16,17,17,17,17,17,17,17,17,17,18,16,17,16,17,17,17,17,17,17,17,17,17,16,17,17,17,17,17,17,17,17,17,16,17,17,17,17,17,16,17,17,16,17,17,17]","68","960","482","false","20","20","black","1","false","1","1","1920","964","ArrowRight","staircase_motion","","","","",""
"","","","","","html-keyboard-response","186","421183","0.0-5.0-1.0-0.0-0.0-4.0-0.0-0.0-2.10","null","","null","<p style='font-size: 60px; color: red'>错误!</p>","","","","","","","","","","","","","","","","","","","","","","","","","","","","","","","","","","","","","","","","","","","","","","","",""
"","","","","","html-keyboard-response","187","422050","0.0-5.0-1.0-0.0-0.0-4.0-0.0-0.0-0.11","null","fixation","null","<p style='font-size: 48px; color: white'>+</p >","","","","","","","","","","","","","","","","","","","","","","","","","","","","","","","","","","","","","","","","","","","","","","","",""
"","","","","","rdk","188","423523","0.0-5.0-1.0-0.0-0.0-4.0-0.0-0.0-1.11","1113","motion_test","arrowright","","false","[""ArrowLeft"",""ArrowRight""]","ArrowLeft","3000","true","1","100","180","0.12","0","3","1","-1","2","300","300","[""hsl(0, 50%, 50%)"",""hsl(225, 50%, 50%)""]","[""white""]","0","0","0","circle","black","3","2","2","16.582089552238806","[2,17,16,17,17,17,16,17,16,17,17,16,17,17,17,17,17,17,17,17,17,17,17,18,16,17,17,17,16,17,17,17,17,17,17,17,17,17,17,17,16,17,17,17,17,17,17,17,16,17,16,17,17,18,16,16,17,16,17,16,17,17,17,16,17,17,16]","67","960","482","false","20","20","black","1","false","1","1","1920","964","ArrowLeft","staircase_motion","","","","",""
"","","","","","html-keyboard-response","189","424400","0.0-5.0-1.0-0.0-0.0-4.0-0.0-0.0-2.11","null","","null","<p style='font-size: 60px; color: red'>错误!</p>","","","","","","","","","","","","","","","","","","","","","","","","","","","","","","","","","","","","","","","","","","","","","","","",""
"","","","","","html-keyboard-response","190","426764","0.0-5.0-1.0-0.0-0.0-4.0-0.0-1.0","null","","null","<p style='font-size: 35px; color: white'>您的正确率为： 50% 。平均反应时为：1585毫秒。</p>","","","","","","","","","","","","","","","","","","","","","","","","","","","","","","","","","","","","","","","","","","","","","","","",""
"","","","","","html-keyboard-response","191","427622","0.0-5.0-1.0-0.0-0.0-5.0-0.0-0.0-0.0","null","fixation","null","<p style='font-size: 48px; color: white'>+</p >","","","","","","","","","","","","","","","","","","","","","","","","","","","","","","","","","","","","","","","","","","","","","","","",""
"","","","","","rdk","192","429707","0.0-5.0-1.0-0.0-0.0-5.0-0.0-0.0-1.0","1715","motion_test","arrowleft","","false","[""ArrowLeft"",""ArrowRight""]","ArrowRight","3000","true","1","100","0","0.1","0","3","1","-1","2","300","300","[""hsl(0, 50%, 50%)"",""hsl(225, 50%, 50%)""]","[""white""]","0","0","0","circle","black","3","2","2","16.737864077669904","[4,16,17,17,17,17,17,17,17,17,17,17,16,17,17,17,16,17,16,18,16,17,17,17,17,16,17,17,17,17,17,17,17,17,17,17,17,17,17,17,17,17,17,17,17,17,17,17,17,17,16,17,17,17,17,18,16,16,17,17,16,17,16,17,17,17,17,17,17,17,17,17,17,16,17,17,17,17,16,17,17,17,17,17,17,18,16,17,16,17,17,17,17,17,17,17,16,16,17,17,17,17,17]","103","960","482","false","20","20","black","1","false","1","1","1920","964","ArrowRight","staircase_motion","","","","",""
"","","","","","html-keyboard-response","193","430583","0.0-5.0-1.0-0.0-0.0-5.0-0.0-0.0-2.0","null","","null","<p style='font-size: 60px; color: red'>错误!</p>","","","","","","","","","","","","","","","","","","","","","","","","","","","","","","","","","","","","","","","","","","","","","","","",""
"","","","","","html-keyboard-response","194","431449","0.0-5.0-1.0-0.0-0.0-5.0-0.0-0.0-0.1","null","fixation","null","<p style='font-size: 48px; color: white'>+</p >","","","","","","","","","","","","","","","","","","","","","","","","","","","","","","","","","","","","","","","","","","","","","","","",""
"","","","","","rdk","195","433211","0.0-5.0-1.0-0.0-0.0-5.0-0.0-0.0-1.1","1401","motion_test","arrowleft","","false","[""ArrowLeft"",""ArrowRight""]","ArrowRight","3000","true","1","100","0","0.1","0","3","1","-1","2","300","300","[""hsl(0, 50%, 50%)"",""hsl(225, 50%, 50%)""]","[""white""]","0","0","0","circle","black","3","2","2","16.63095238095238","[1,17,16,17,17,17,16,17,18,16,17,16,17,17,17,17,16,17,17,17,17,17,17,17,16,17,17,17,16,17,17,17,17,16,17,17,17,16,17,16,17,17,17,17,17,16,17,17,17,17,17,17,17,16,17,17,17,17,17,17,17,17,16,17,17,17,17,17,16,17,17,17,17,17,16,17,17,17,17,17,17,17,16,17]","84","960","482","false","20","20","black","1","false","1","1","1920","964","ArrowRight","staircase_motion","","","","",""
"","","","","","html-keyboard-response","196","434081","0.0-5.0-1.0-0.0-0.0-5.0-0.0-0.0-2.1","null","","null","<p style='font-size: 60px; color: red'>错误!</p>","","","","","","","","","","","","","","","","","","","","","","","","","","","","","","","","","","","","","","","","","","","","","","","",""
"","","","","","html-keyboard-response","197","434963","0.0-5.0-1.0-0.0-0.0-5.0-0.0-0.0-0.2","null","fixation","null","<p style='font-size: 48px; color: white'>+</p >","","","","","","","","","","","","","","","","","","","","","","","","","","","","","","","","","","","","","","","","","","","","","","","",""
"","","","","","rdk","198","436043","0.0-5.0-1.0-0.0-0.0-5.0-0.0-0.0-1.2","718","motion_test","arrowleft","","true","[""ArrowLeft"",""ArrowRight""]","ArrowLeft","3000","true","1","100","180","0.1","0","3","1","-1","2","300","300","[""hsl(0, 50%, 50%)"",""hsl(225, 50%, 50%)""]","[""white""]","0","0","0","circle","black","3","2","2","16.488372093023255","[4,17,17,16,17,17,17,17,17,17,16,17,16,17,16,17,16,17,17,16,17,17,17,17,17,17,17,17,16,17,16,17,17,17,17,17,17,17,17,17,17,16,17]","43","960","482","false","20","20","black","1","false","1","1","1920","964","ArrowLeft","staircase_motion","","","","",""
"","","","","","html-keyboard-response","199","436916","0.0-5.0-1.0-0.0-0.0-5.0-0.0-0.0-2.2","null","","null","<p style='font-size: 60px; color: green'>正确!</p>","","","","","","","","","","","","","","","","","","","","","","","","","","","","","","","","","","","","","","","","","","","","","","","",""
"","","","","","html-keyboard-response","200","437784","0.0-5.0-1.0-0.0-0.0-5.0-0.0-0.0-0.3","null","fixation","null","<p style='font-size: 48px; color: white'>+</p >","","","","","","","","","","","","","","","","","","","","","","","","","","","","","","","","","","","","","","","","","","","","","","","",""
"","","","","","rdk","201","438819","0.0-5.0-1.0-0.0-0.0-5.0-0.0-0.0-1.3","675","motion_test","arrowleft","","true","[""ArrowLeft"",""ArrowRight""]","ArrowLeft","3000","true","1","100","180","0.1","0","3","1","-1","2","300","300","[""hsl(0, 50%, 50%)"",""hsl(225, 50%, 50%)""]","[""white""]","0","0","0","circle","black","3","2","2","17","[18,17,17,17,17,17,17,17,17,17,17,17,17,17,17,17,17,17,17,17,17,17,17,17,17,17,17,17,17,16,17,17,17,17,17,17,17,17,17,17]","40","960","482","false","20","20","black","1","false","1","1","1920","964","ArrowLeft","staircase_motion","","","","",""
"","","","","","html-keyboard-response","202","439684","0.0-5.0-1.0-0.0-0.0-5.0-0.0-0.0-2.3","null","","null","<p style='font-size: 60px; color: green'>正确!</p>","","","","","","","","","","","","","","","","","","","","","","","","","","","","","","","","","","","","","","","","","","","","","","","",""
"","","","","","html-keyboard-response","203","440557","0.0-5.0-1.0-0.0-0.0-5.0-0.0-0.0-0.4","null","fixation","null","<p style='font-size: 48px; color: white'>+</p >","","","","","","","","","","","","","","","","","","","","","","","","","","","","","","","","","","","","","","","","","","","","","","","",""
"","","","","","rdk","204","441643","0.0-5.0-1.0-0.0-0.0-5.0-0.0-0.0-1.4","729","motion_test","arrowleft","","false","[""ArrowLeft"",""ArrowRight""]","ArrowRight","3000","true","1","100","0","0.1","0","3","1","-1","2","300","300","[""hsl(0, 50%, 50%)"",""hsl(225, 50%, 50%)""]","[""white""]","0","0","0","circle","black","3","2","2","16.813953488372093","[15,17,16,17,16,17,17,17,16,17,17,17,16,17,17,17,17,17,17,17,17,17,17,17,17,17,16,17,17,17,17,17,17,17,17,17,18,16,16,17,17,17,17]","43","960","482","false","20","20","black","1","false","1","1","1920","964","ArrowRight","staircase_motion","","","","",""
"","","","","","html-keyboard-response","205","442516","0.0-5.0-1.0-0.0-0.0-5.0-0.0-0.0-2.4","null","","null","<p style='font-size: 60px; color: red'>错误!</p>","","","","","","","","","","","","","","","","","","","","","","","","","","","","","","","","","","","","","","","","","","","","","","","",""
"","","","","","html-keyboard-response","206","443390","0.0-5.0-1.0-0.0-0.0-5.0-0.0-0.0-0.5","null","fixation","null","<p style='font-size: 48px; color: white'>+</p >","","","","","","","","","","","","","","","","","","","","","","","","","","","","","","","","","","","","","","","","","","","","","","","",""
"","","","","","rdk","207","445027","0.0-5.0-1.0-0.0-0.0-5.0-0.0-0.0-1.5","1277","motion_test","arrowright","","true","[""ArrowLeft"",""ArrowRight""]","ArrowRight","3000","true","1","100","0","0.1","0","3","1","-1","2","300","300","[""hsl(0, 50%, 50%)"",""hsl(225, 50%, 50%)""]","[""white""]","0","0","0","circle","black","3","2","2","16.855263157894736","[12,16,17,17,16,17,17,17,17,17,17,17,17,17,17,17,17,17,17,17,18,16,17,17,17,17,17,17,17,17,17,17,17,17,17,17,17,17,17,17,17,17,17,17,17,17,16,17,16,17,17,17,17,17,17,17,17,17,17,17,17,17,17,17,17,17,17,17,16,17,16,17,17,17,17,17]","76","960","482","false","20","20","black","1","false","1","1","1920","964","ArrowRight","staircase_motion","","","","",""
"","","","","","html-keyboard-response","208","445899","0.0-5.0-1.0-0.0-0.0-5.0-0.0-0.0-2.5","null","","null","<p style='font-size: 60px; color: green'>正确!</p>","","","","","","","","","","","","","","","","","","","","","","","","","","","","","","","","","","","","","","","","","","","","","","","",""
"","","","","","html-keyboard-response","209","446766","0.0-5.0-1.0-0.0-0.0-5.0-0.0-0.0-0.6","null","fixation","null","<p style='font-size: 48px; color: white'>+</p >","","","","","","","","","","","","","","","","","","","","","","","","","","","","","","","","","","","","","","","","","","","","","","","",""
"","","","","","rdk","210","448067","0.0-5.0-1.0-0.0-0.0-5.0-0.0-0.0-1.6","932","motion_test","arrowleft","","true","[""ArrowLeft"",""ArrowRight""]","ArrowLeft","3000","true","1","100","180","0.1","0","3","1","-1","2","300","300","[""hsl(0, 50%, 50%)"",""hsl(225, 50%, 50%)""]","[""white""]","0","0","0","circle","black","3","2","2","16.767857142857142","[11,17,16,17,17,17,17,16,17,17,17,17,17,17,17,17,17,17,17,17,17,17,17,17,17,17,17,17,17,17,18,15,17,17,17,17,17,17,17,17,17,17,17,16,17,16,17,17,17,17,17,17,16,17,17,16]","56","960","482","false","20","20","black","1","false","1","1","1920","964","ArrowLeft","staircase_motion","","","","",""
"","","","","","html-keyboard-response","211","448934","0.0-5.0-1.0-0.0-0.0-5.0-0.0-0.0-2.6","null","","null","<p style='font-size: 60px; color: green'>正确!</p>","","","","","","","","","","","","","","","","","","","","","","","","","","","","","","","","","","","","","","","","","","","","","","","",""
"","","","","","html-keyboard-response","212","449806","0.0-5.0-1.0-0.0-0.0-5.0-0.0-0.0-0.7","null","fixation","null","<p style='font-size: 48px; color: white'>+</p >","","","","","","","","","","","","","","","","","","","","","","","","","","","","","","","","","","","","","","","","","","","","","","","",""
"","","","","","rdk","213","450843","0.0-5.0-1.0-0.0-0.0-5.0-0.0-0.0-1.7","676","motion_test","arrowright","","false","[""ArrowLeft"",""ArrowRight""]","ArrowLeft","3000","true","1","100","180","0.1","0","3","1","-1","2","300","300","[""hsl(0, 50%, 50%)"",""hsl(225, 50%, 50%)""]","[""white""]","0","0","0","circle","black","3","2","2","16.75","[11,17,16,17,17,17,17,17,17,17,17,17,17,17,17,17,17,17,17,17,17,17,17,17,17,17,17,17,17,16,18,16,17,16,17,17,17,17,17,16]","40","960","482","false","20","20","black","1","false","1","1","1920","964","ArrowLeft","staircase_motion","","","","",""
"","","","","","html-keyboard-response","214","451717","0.0-5.0-1.0-0.0-0.0-5.0-0.0-0.0-2.7","null","","null","<p style='font-size: 60px; color: red'>错误!</p>","","","","","","","","","","","","","","","","","","","","","","","","","","","","","","","","","","","","","","","","","","","","","","","",""
"","","","","","html-keyboard-response","215","452584","0.0-5.0-1.0-0.0-0.0-5.0-0.0-0.0-0.8","null","fixation","null","<p style='font-size: 48px; color: white'>+</p >","","","","","","","","","","","","","","","","","","","","","","","","","","","","","","","","","","","","","","","","","","","","","","","",""
"","","","","","rdk","216","453619","0.0-5.0-1.0-0.0-0.0-5.0-0.0-0.0-1.8","676","motion_test","arrowleft","","true","[""ArrowLeft"",""ArrowRight""]","ArrowLeft","3000","true","1","100","180","0.1","0","3","1","-1","2","300","300","[""hsl(0, 50%, 50%)"",""hsl(225, 50%, 50%)""]","[""white""]","0","0","0","circle","black","3","2","2","16.5609756097561","[3,16,17,17,17,17,17,17,17,17,17,17,17,16,17,17,17,17,16,16,17,17,17,17,17,17,17,17,17,17,17,17,17,17,17,17,17,17,17,17,17]","41","960","482","false","20","20","black","1","false","1","1","1920","964","ArrowLeft","staircase_motion","","","","",""
"","","","","","html-keyboard-response","217","454485","0.0-5.0-1.0-0.0-0.0-5.0-0.0-0.0-2.8","null","","null","<p style='font-size: 60px; color: green'>正确!</p>","","","","","","","","","","","","","","","","","","","","","","","","","","","","","","","","","","","","","","","","","","","","","","","",""
"","","","","","html-keyboard-response","218","455350","0.0-5.0-1.0-0.0-0.0-5.0-0.0-0.0-0.9","null","fixation","null","<p style='font-size: 48px; color: white'>+</p >","","","","","","","","","","","","","","","","","","","","","","","","","","","","","","","","","","","","","","","","","","","","","","","",""
"","","","","","rdk","219","456380","0.0-5.0-1.0-0.0-0.0-5.0-0.0-0.0-1.9","670","motion_test","arrowleft","","false","[""ArrowLeft"",""ArrowRight""]","ArrowRight","3000","true","1","100","0","0.1","0","3","1","-1","2","300","300","[""hsl(0, 50%, 50%)"",""hsl(225, 50%, 50%)""]","[""white""]","0","0","0","circle","black","3","2","2","16.414634146341463","[2,17,16,17,17,16,17,17,17,17,16,17,17,16,17,17,16,17,16,17,17,17,17,17,17,17,16,17,17,17,17,16,17,17,17,17,17,17,17,16,17]","41","960","482","false","20","20","black","1","false","1","1","1920","964","ArrowRight","staircase_motion","","","","",""
"","","","","","html-keyboard-response","220","457250","0.0-5.0-1.0-0.0-0.0-5.0-0.0-0.0-2.9","null","","null","<p style='font-size: 60px; color: red'>错误!</p>","","","","","","","","","","","","","","","","","","","","","","","","","","","","","","","","","","","","","","","","","","","","","","","",""
