"success","timeout","failed_images","failed_audio","failed_video","trial_type","trial_index","time_elapsed","internal_node_id","rt","part","response","stimulus","correct","choices","correct_choice","trial_duration","response_ends_trial","number_of_apertures","number_of_dots","coherent_direction","coherence","opposite_coherence","dot_radius","dot_side_length","dot_life","move_distance","aperture_width","aperture_height","dot_color","dot_color_final","color_change_delay","target_color_proportion","motion_change_delay","dot_shape","background_color","RDK_type","aperture_type","reinsert_type","frame_rate","frame_rate_array","number_of_frames","aperture_center_x","aperture_center_y","fixation_cross","fixation_cross_width","fixation_cross_height","fixation_cross_color","fixation_cross_thickness","border","border_thickness","border_color","canvas_width","canvas_height","correct_response","data_label","task","difficulty","isMatch","association","label","task_type"
"true","false","[]","[]","[]","preload","0","5","0.0-0.0","","","","","","","","","","","","","","","","","","","","","","","","","","","","","","","","","","","","","","","","","","","","","","","","","","","","",""
"true","","","","","fullscreen","1","178840","0.0-1.0","177220","fullScreen","","","","","","","","","","","","","","","","","","","","","","","","","","","","","","","","","","","","","","","","","","","","","","","","","","",""
"","","","","","survey","2","188830","0.0-2.0","9341","survey","{""sex"":""女"",""age"":23,""hands"":""右"",""color_blindness"":""都不是""}","","","","","","","","","","","","","","","","","","","","","","","","","","","","","","","","","","","","","","","","","","","","","","","","","",""
"","","","","","survey-text","3","198651","0.0-3.0","9212","color_test","{""Q0"":""BE""}","","","","","","","","","","","","","","","","","","","","","","","","","","","","","","","","","","","","","","","","","","","","","","","","","",""
"","","","","","html-keyboard-response","4","206853","0.0-4.0","7590","instruction_beginning"," ","
      <div style=""text-align: left; color: white"">
        <h3 style=""text-align: center; font-size: 30px; margin: 0;"">欢迎参与本实验</h3>
          <p>为充分保障您的权利，请确保您已经知晓并同意《参与实验同意书》以及《数据公开知情同意书》，</p>
          <p>如果您未见过上述内容，请咨询实验员 ，</p>
          <p>如果您选择继续实验，则表示您已经清楚两份知情同意书的内容并同意 。</p>
          <p>在整个实验中，您需要完成三项任务，具体的任务要求会在后面说明 ，</p>
          <p>请按空格键进入实验</p >
      </div>","","","","","","","","","","","","","","","","","","","","","","","","","","","","","","","","","","","","","","","","","","","","","","","","",""
"","","","","","html-keyboard-response","5","244077","0.0-5.0-0.0","36617","instruction_getThreshold"," ","
    <div style=""text-align: left; color: white; padding: 10px""> 
      <h3 style=""text-align: center; font-size: 30px; margin: 10px"">欢迎进入实验！请仔细阅读以下文字</h3>
      <p>在正式开始前，我们将通过一个快速测试为您制定合适的难度水平。<p>
      <p>接下来，屏幕上会呈现一些运动的彩色圆点，</p>
      <p>如果任务要求您<span style=""font-weight: bold"">判断散点图的一致运动方向</span><p>
      <p>您需要<span style=""font-weight: bold"">忽略点的颜色</span>并判断一致的运动方向是向左还是向右:</p >
      <ul>
        <li><span style=""font-weight: bold"">向左</span>，请按<span style=""font-weight: bold"">键盘左键 <— </span></li>
        <li><span style=""font-weight: bold"">向右</span>，请按<span style=""font-weight: bold"">键盘右键 —> </span> </li>
      </ul>
      <p>如果任务要求您<span style=""font-weight: bold"">判断散点图的整体颜色（即大多数点的颜色）是红色还是蓝色</span><p>
      <p>您需要<span style=""font-weight: bold"">忽略点的运动方向</span>并判断整体颜色:</p >
      <ul>
          <li>整体为 <span style=""color: hsl(0, 50%, 50%)"">红色</span>，请按键盘 <span style=""color: hsl(0, 50%, 50%)"">""D"" 键</span></li>
          <li>整体为 <span style=""color: hsl(225, 50%, 50%)"">蓝色</span>，请按键盘 <span style=""color: hsl(225, 50%, 50%)"">""k"" 键</span> </li>
        </ul>
      <p>如有疑问请向主试咨询，没有则按下空格键开始</p>
    </div>","","","","","","","","","","","","","","","","","","","","","","","","","","","","","","","","","","","","","","","","","","","","","","","","",""
"","","","","","html-keyboard-response","6","251836","0.0-5.0-1.0-1.0-0.0","7159","instruction_taskSeparate"," ","
    <div style=""text-align: left; color: white; padding: 10px""> 
      <p>现在是整体颜色判断</p>
      <p>您需要<span style=""font-weight: bold"">忽略点的运动方向</span>并判断整体颜色:</p >
        <ul>
            <li>整体为 <span style=""color: hsl(0, 50%, 50%)"">红色</span>，请按键盘 <span style=""color: hsl(0, 50%, 50%)"">""D"" 键</span></li>
            <li>整体为 <span style=""color: hsl(225, 50%, 50%)"">蓝色</span>，请按键盘 <span style=""color: hsl(225, 50%, 50%)"">""k"" 键</span> </li>
          </ul>
      <p>准备好后请按空格键开始</p>
    </div>","","","","","","","","","","","","","","","","","","","","","","","","","","","","","","","","","","","","","","","","","","","","","","","","",""
"","","","","","html-keyboard-response","7","252938","0.0-5.0-1.0-1.0-1.0-0.0-0.0-0.0-0.0","null","fixation","null","<p style='font-size: 48px; color: white'>+</p >","","","","","","","","","","","","","","","","","","","","","","","","","","","","","","","","","","","","","","","","","","","","","","","","",""
"","","","","","rdk","8","256181","0.0-5.0-1.0-1.0-1.0-0.0-0.0-0.0-1.0","2641","color_test","k","","true","[""d"",""k""]","k","-1","true","1","100","0","0","0","3","1","-1","2","300","300","[""hsl(0, 50%, 50%)"",""hsl(225, 50%, 50%)""]","[""hsl(225, 50%, 50%)"",""hsl(0, 50%, 50%)""]","0","0.55","0","circle","black","3","2","2","16.90566037735849","[3,17,17,17,17,17,17,17,17,17,16,17,17,17,17,17,17,17,17,17,17,17,17,17,17,17,17,17,17,17,17,17,17,17,17,17,17,17,17,17,17,17,17,17,17,17,17,17,17,17,17,17,17,17,17,17,17,17,17,17,17,17,17,17,17,17,17,17,17,17,17,17,17,17,17,17,17,17,17,17,17,17,17,17,17,17,17,17,17,17,17,17,17,17,17,17,17,17,17,17,17,17,17,17,17,17,17,17,17,17,17,17,17,17,17,17,17,17,17,17,17,17,17,17,17,17,17,17,17,17,17,17,17,17,17,17,17,17,17,17,17,17,17,17,17,17,17,17,17,17,17,17,17,17,17,17,17,17,17]","159","956","466","false","20","20","black","1","false","1","1","1920","932","k","staircase_color","","","","","",""
"","","","","","html-keyboard-response","9","257308","0.0-5.0-1.0-1.0-1.0-0.0-0.0-0.0-2.0","null","","null","<p style='font-size: 60px; color: green'>正确!</p>","","","","","","","","","","","","","","","","","","","","","","","","","","","","","","","","","","","","","","","","","","","","","","","","",""
"","","","","","html-keyboard-response","10","258422","0.0-5.0-1.0-1.0-1.0-0.0-0.0-0.0-0.1","null","fixation","null","<p style='font-size: 48px; color: white'>+</p >","","","","","","","","","","","","","","","","","","","","","","","","","","","","","","","","","","","","","","","","","","","","","","","","",""
"","","","","","rdk","11","262133","0.0-5.0-1.0-1.0-1.0-0.0-0.0-0.0-1.1","3113","color_test","d","","true","[""d"",""k""]","d","-1","true","1","100","0","0","0","3","1","-1","2","300","300","[""hsl(0, 50%, 50%)"",""hsl(225, 50%, 50%)""]","[""hsl(0, 50%, 50%)"",""hsl(225, 50%, 50%)""]","0","0.55","0","circle","black","3","2","2","16.90374331550802","[5,17,16,17,17,17,17,17,17,17,17,17,17,17,17,17,17,17,17,17,16,17,17,17,17,17,17,17,17,17,17,17,17,17,17,17,17,17,17,17,17,17,17,17,17,17,17,17,17,17,17,17,17,17,17,17,17,17,17,17,17,16,17,17,17,17,17,17,17,17,17,17,17,17,17,17,17,17,17,17,17,17,17,17,17,17,17,17,17,17,17,17,17,17,16,17,17,17,17,17,17,17,17,17,17,17,17,17,16,17,17,17,17,17,17,17,17,17,17,17,17,17,17,17,17,17,17,17,17,17,17,17,17,17,17,17,17,17,17,17,17,17,17,17,17,17,17,17,17,17,17,17,17,17,17,17,17,17,17,17,17,17,17,17,17,17,17,17,17,17,17,17,17,17,17,16,17,17,17,17,17,17,17,17,17,17,17]","187","956","466","false","20","20","black","1","false","1","1","1920","932","d","staircase_color","","","","","",""
"","","","","","html-keyboard-response","12","263235","0.0-5.0-1.0-1.0-1.0-0.0-0.0-0.0-2.1","null","","null","<p style='font-size: 60px; color: green'>正确!</p>","","","","","","","","","","","","","","","","","","","","","","","","","","","","","","","","","","","","","","","","","","","","","","","","",""
"","","","","","html-keyboard-response","13","264335","0.0-5.0-1.0-1.0-1.0-0.0-0.0-0.0-0.2","null","fixation","null","<p style='font-size: 48px; color: white'>+</p >","","","","","","","","","","","","","","","","","","","","","","","","","","","","","","","","","","","","","","","","","","","","","","","","",""
"","","","","","rdk","14","266556","0.0-5.0-1.0-1.0-1.0-0.0-0.0-0.0-1.2","1610","color_test","k","","true","[""d"",""k""]","k","-1","true","1","100","0","0","0","3","1","-1","2","300","300","[""hsl(0, 50%, 50%)"",""hsl(225, 50%, 50%)""]","[""hsl(225, 50%, 50%)"",""hsl(0, 50%, 50%)""]","0","0.55","0","circle","black","3","2","2","16.947916666666668","[14,16,17,17,17,17,17,17,17,17,17,17,17,17,17,17,17,17,17,17,17,17,17,17,17,17,17,17,17,17,17,17,17,17,17,17,17,17,17,17,17,17,17,17,17,17,17,17,17,17,16,17,17,17,17,17,17,17,17,17,17,17,17,17,17,17,17,17,17,17,17,17,17,17,17,17,17,17,17,17,17,17,17,17,17,17,17,17,17,17,17,17,17,17,17,17]","96","956","466","false","20","20","black","1","false","1","1","1920","932","k","staircase_color","","","","","",""
"","","","","","html-keyboard-response","15","267674","0.0-5.0-1.0-1.0-1.0-0.0-0.0-0.0-2.2","null","","null","<p style='font-size: 60px; color: green'>正确!</p>","","","","","","","","","","","","","","","","","","","","","","","","","","","","","","","","","","","","","","","","","","","","","","","","",""
"","","","","","html-keyboard-response","16","268787","0.0-5.0-1.0-1.0-1.0-0.0-0.0-0.0-0.3","null","fixation","null","<p style='font-size: 48px; color: white'>+</p >","","","","","","","","","","","","","","","","","","","","","","","","","","","","","","","","","","","","","","","","","","","","","","","","",""
"","","","","","rdk","17","271684","0.0-5.0-1.0-1.0-1.0-0.0-0.0-0.0-1.3","2285","color_test","d","","true","[""d"",""k""]","d","-1","true","1","100","0","0","0","3","1","-1","2","300","300","[""hsl(0, 50%, 50%)"",""hsl(225, 50%, 50%)""]","[""hsl(0, 50%, 50%)"",""hsl(225, 50%, 50%)""]","0","0.55","0","circle","black","3","2","2","16.912408759124087","[11,17,16,17,17,17,17,17,17,17,17,17,17,17,17,17,17,17,17,17,17,17,17,17,17,17,17,17,17,17,16,17,17,17,17,17,17,17,17,17,17,17,17,17,17,17,17,17,17,17,17,17,17,17,17,17,17,17,17,17,17,17,17,17,17,17,17,17,17,17,17,18,18,13,17,17,17,17,17,17,17,17,17,17,17,17,16,17,17,17,17,17,17,17,17,17,17,17,17,17,17,17,17,17,16,17,17,17,17,17,17,17,17,17,17,17,17,17,17,17,17,17,17,17,17,17,17,17,17,17,17,17,17,17,17,17,17]","137","956","466","false","20","20","black","1","false","1","1","1920","932","d","staircase_color","","","","","",""
"","","","","","html-keyboard-response","18","272795","0.0-5.0-1.0-1.0-1.0-0.0-0.0-0.0-2.3","null","","null","<p style='font-size: 60px; color: green'>正确!</p>","","","","","","","","","","","","","","","","","","","","","","","","","","","","","","","","","","","","","","","","","","","","","","","","",""
"","","","","","html-keyboard-response","19","273905","0.0-5.0-1.0-1.0-1.0-0.0-0.0-0.0-0.4","null","fixation","null","<p style='font-size: 48px; color: white'>+</p >","","","","","","","","","","","","","","","","","","","","","","","","","","","","","","","","","","","","","","","","","","","","","","","","",""
"","","","","","rdk","20","276229","0.0-5.0-1.0-1.0-1.0-0.0-0.0-0.0-1.4","1724","color_test","k","","true","[""d"",""k""]","k","-1","true","1","100","0","0","0","3","1","-1","2","300","300","[""hsl(0, 50%, 50%)"",""hsl(225, 50%, 50%)""]","[""hsl(225, 50%, 50%)"",""hsl(0, 50%, 50%)""]","0","0.55","0","circle","black","3","2","2","16.83653846153846","[5,16,17,17,17,17,16,17,17,17,17,17,17,17,17,17,17,17,17,17,17,17,17,17,17,17,17,17,17,16,17,17,17,17,17,17,17,17,17,17,17,17,17,17,17,17,17,17,17,17,17,17,17,17,17,17,17,17,17,17,17,17,17,17,17,17,17,17,17,17,17,17,17,17,17,17,17,17,17,17,17,17,17,17,16,17,17,16,17,17,17,17,17,17,17,17,17,17,17,17,17,17,17,17]","104","956","466","false","20","20","black","1","false","1","1","1920","932","k","staircase_color","","","","","",""
"","","","","","html-keyboard-response","21","277330","0.0-5.0-1.0-1.0-1.0-0.0-0.0-0.0-2.4","null","","null","<p style='font-size: 60px; color: green'>正确!</p>","","","","","","","","","","","","","","","","","","","","","","","","","","","","","","","","","","","","","","","","","","","","","","","","",""
"","","","","","html-keyboard-response","22","278433","0.0-5.0-1.0-1.0-1.0-0.0-0.0-0.0-0.5","null","fixation","null","<p style='font-size: 48px; color: white'>+</p >","","","","","","","","","","","","","","","","","","","","","","","","","","","","","","","","","","","","","","","","","","","","","","","","",""
"","","","","","rdk","23","281246","0.0-5.0-1.0-1.0-1.0-0.0-0.0-0.0-1.5","2210","color_test","k","","true","[""d"",""k""]","k","-1","true","1","100","0","0","0","3","1","-1","2","300","300","[""hsl(0, 50%, 50%)"",""hsl(225, 50%, 50%)""]","[""hsl(225, 50%, 50%)"",""hsl(0, 50%, 50%)""]","0","0.55","0","circle","black","3","2","2","16.887218045112782","[8,16,17,17,17,17,17,17,17,17,17,17,17,17,17,17,17,17,17,17,17,17,17,17,17,17,17,17,17,17,17,17,17,17,17,17,17,17,17,17,17,17,17,17,17,17,17,17,17,17,17,17,17,17,17,17,17,17,16,16,17,17,17,17,17,17,17,17,17,17,17,17,19,14,17,17,17,17,17,17,17,17,17,17,17,17,17,17,17,17,17,17,17,17,17,17,17,17,17,17,17,17,17,17,17,17,17,16,17,17,17,17,17,17,17,17,17,17,17,17,17,17,17,17,17,17,17,17,17,17,17,16,17]","133","956","466","false","20","20","black","1","false","1","1","1920","932","k","staircase_color","","","","","",""
"","","","","","html-keyboard-response","24","282355","0.0-5.0-1.0-1.0-1.0-0.0-0.0-0.0-2.5","null","","null","<p style='font-size: 60px; color: green'>正确!</p>","","","","","","","","","","","","","","","","","","","","","","","","","","","","","","","","","","","","","","","","","","","","","","","","",""
"","","","","","html-keyboard-response","25","283457","0.0-5.0-1.0-1.0-1.0-0.0-0.0-0.0-0.6","null","fixation","null","<p style='font-size: 48px; color: white'>+</p >","","","","","","","","","","","","","","","","","","","","","","","","","","","","","","","","","","","","","","","","","","","","","","","","",""
"","","","","","rdk","26","286756","0.0-5.0-1.0-1.0-1.0-0.0-0.0-0.0-1.6","2700","color_test","d","","true","[""d"",""k""]","d","-1","true","1","100","0","0","0","3","1","-1","2","300","300","[""hsl(0, 50%, 50%)"",""hsl(225, 50%, 50%)""]","[""hsl(0, 50%, 50%)"",""hsl(225, 50%, 50%)""]","0","0.55","0","circle","black","3","2","2","16.88888888888889","[3,16,17,17,17,17,17,16,17,17,17,17,17,17,17,17,17,17,17,17,17,17,17,17,17,17,17,17,17,17,17,17,17,17,17,17,17,17,17,17,17,17,17,17,17,17,17,17,17,17,17,17,17,17,17,17,17,17,17,17,17,17,17,17,17,17,17,17,17,17,17,17,17,17,17,17,17,17,17,17,17,17,17,17,17,17,17,17,17,17,17,17,17,17,17,17,16,17,17,17,17,17,17,17,17,17,17,17,17,16,17,17,17,17,17,17,17,17,17,17,17,17,17,17,17,17,17,17,17,17,17,17,17,17,17,17,17,17,17,17,17,17,17,17,17,17,17,17,17,17,17,17,17,17,17,17,17,17,17,17,17,17]","162","956","466","false","20","20","black","1","false","1","1","1920","932","d","staircase_color","","","","","",""
"","","","","","html-keyboard-response","27","287864","0.0-5.0-1.0-1.0-1.0-0.0-0.0-0.0-2.6","null","","null","<p style='font-size: 60px; color: green'>正确!</p>","","","","","","","","","","","","","","","","","","","","","","","","","","","","","","","","","","","","","","","","","","","","","","","","",""
"","","","","","html-keyboard-response","28","288965","0.0-5.0-1.0-1.0-1.0-0.0-0.0-0.0-0.7","null","fixation","null","<p style='font-size: 48px; color: white'>+</p >","","","","","","","","","","","","","","","","","","","","","","","","","","","","","","","","","","","","","","","","","","","","","","","","",""
"","","","","","rdk","29","291717","0.0-5.0-1.0-1.0-1.0-0.0-0.0-0.0-1.7","2152","color_test","d","","true","[""d"",""k""]","d","-1","true","1","100","0","0","0","3","1","-1","2","300","300","[""hsl(0, 50%, 50%)"",""hsl(225, 50%, 50%)""]","[""hsl(0, 50%, 50%)"",""hsl(225, 50%, 50%)""]","0","0.55","0","circle","black","3","2","2","16.891472868217054","[11,16,17,17,17,17,17,17,17,17,17,17,17,17,17,17,17,17,17,17,17,17,17,17,17,17,17,17,17,17,17,17,17,17,17,17,17,17,17,17,16,17,17,17,17,17,17,17,17,17,17,17,17,17,17,17,17,17,16,17,17,17,17,17,17,17,16,17,17,17,17,17,17,17,17,17,16,16,17,17,17,17,17,17,17,17,17,17,17,17,17,17,17,16,17,17,17,17,17,17,17,17,17,17,17,17,17,16,17,17,17,17,17,17,17,17,17,17,17,17,17,17,17,17,17,17,17,17,17]","129","956","466","false","20","20","black","1","false","1","1","1920","932","d","staircase_color","","","","","",""
"","","","","","html-keyboard-response","30","292831","0.0-5.0-1.0-1.0-1.0-0.0-0.0-0.0-2.7","null","","null","<p style='font-size: 60px; color: green'>正确!</p>","","","","","","","","","","","","","","","","","","","","","","","","","","","","","","","","","","","","","","","","","","","","","","","","",""
"","","","","","html-keyboard-response","31","293933","0.0-5.0-1.0-1.0-1.0-0.0-0.0-0.0-0.8","null","fixation","null","<p style='font-size: 48px; color: white'>+</p >","","","","","","","","","","","","","","","","","","","","","","","","","","","","","","","","","","","","","","","","","","","","","","","","",""
"","","","","","rdk","32","295619","0.0-5.0-1.0-1.0-1.0-0.0-0.0-0.0-1.8","1088","color_test","k","","true","[""d"",""k""]","k","-1","true","1","100","0","0","0","3","1","-1","2","300","300","[""hsl(0, 50%, 50%)"",""hsl(225, 50%, 50%)""]","[""hsl(225, 50%, 50%)"",""hsl(0, 50%, 50%)""]","0","0.55","0","circle","black","3","2","2","16.892307692307693","[12,17,17,17,17,17,17,17,17,17,17,17,17,17,17,17,17,17,17,17,17,17,17,17,17,17,17,17,17,17,17,17,17,17,17,17,17,17,17,17,17,17,16,17,17,17,17,17,17,17,17,17,17,17,17,17,17,17,17,17,17,17,16,17,17]","65","956","466","false","20","20","black","1","false","1","1","1920","932","k","staircase_color","","","","","",""
"","","","","","html-keyboard-response","33","296722","0.0-5.0-1.0-1.0-1.0-0.0-0.0-0.0-2.8","null","","null","<p style='font-size: 60px; color: green'>正确!</p>","","","","","","","","","","","","","","","","","","","","","","","","","","","","","","","","","","","","","","","","","","","","","","","","",""
"","","","","","html-keyboard-response","34","297823","0.0-5.0-1.0-1.0-1.0-0.0-0.0-0.0-0.9","null","fixation","null","<p style='font-size: 48px; color: white'>+</p >","","","","","","","","","","","","","","","","","","","","","","","","","","","","","","","","","","","","","","","","","","","","","","","","",""
"","","","","","rdk","35","299788","0.0-5.0-1.0-1.0-1.0-0.0-0.0-0.0-1.9","1365","color_test","d","","true","[""d"",""k""]","d","-1","true","1","100","0","0","0","3","1","-1","2","300","300","[""hsl(0, 50%, 50%)"",""hsl(225, 50%, 50%)""]","[""hsl(0, 50%, 50%)"",""hsl(225, 50%, 50%)""]","0","0.55","0","circle","black","3","2","2","16.79268292682927","[4,16,17,17,17,17,16,17,17,17,17,17,17,17,17,17,17,17,17,17,17,17,17,17,17,17,17,17,17,17,17,17,17,17,17,17,17,17,17,17,17,17,17,17,17,17,17,17,17,18,15,17,17,17,17,17,17,17,17,17,17,17,17,17,17,17,16,17,17,17,17,17,17,17,17,17,17,17,17,17,17,17]","82","956","466","false","20","20","black","1","false","1","1","1920","932","d","staircase_color","","","","","",""
"","","","","","html-keyboard-response","36","300889","0.0-5.0-1.0-1.0-1.0-0.0-0.0-0.0-2.9","null","","null","<p style='font-size: 60px; color: green'>正确!</p>","","","","","","","","","","","","","","","","","","","","","","","","","","","","","","","","","","","","","","","","","","","","","","","","",""
"","","","","","html-keyboard-response","37","302015","0.0-5.0-1.0-1.0-1.0-0.0-0.0-0.0-0.10","null","fixation","null","<p style='font-size: 48px; color: white'>+</p >","","","","","","","","","","","","","","","","","","","","","","","","","","","","","","","","","","","","","","","","","","","","","","","","",""
"","","","","","rdk","38","304980","0.0-5.0-1.0-1.0-1.0-0.0-0.0-0.0-1.10","2365","color_test","d","","true","[""d"",""k""]","d","-1","true","1","100","0","0","0","3","1","-1","2","300","300","[""hsl(0, 50%, 50%)"",""hsl(225, 50%, 50%)""]","[""hsl(0, 50%, 50%)"",""hsl(225, 50%, 50%)""]","0","0.55","0","circle","black","3","2","2","16.929577464788732","[12,17,17,17,17,17,17,17,17,17,17,17,17,17,17,16,17,17,17,17,17,17,17,17,17,17,17,17,17,17,17,17,17,17,17,17,17,17,17,17,17,17,17,17,17,16,17,17,17,17,17,17,17,17,17,17,17,17,17,17,17,17,17,17,17,17,17,17,17,17,17,17,17,17,17,16,17,17,17,17,17,17,17,17,17,17,16,17,17,17,17,17,17,17,17,17,17,17,17,17,17,17,17,17,17,17,17,17,17,17,17,17,17,17,17,17,17,17,17,17,17,17,17,17,17,17,17,17,17,17,17,16,17,17,17,17,17,17,17,17,17,17]","142","956","466","false","20","20","black","1","false","1","1","1920","932","d","staircase_color","","","","","",""
"","","","","","html-keyboard-response","39","306090","0.0-5.0-1.0-1.0-1.0-0.0-0.0-0.0-2.10","null","","null","<p style='font-size: 60px; color: green'>正确!</p>","","","","","","","","","","","","","","","","","","","","","","","","","","","","","","","","","","","","","","","","","","","","","","","","",""
"","","","","","html-keyboard-response","40","307191","0.0-5.0-1.0-1.0-1.0-0.0-0.0-0.0-0.11","null","fixation","null","<p style='font-size: 48px; color: white'>+</p >","","","","","","","","","","","","","","","","","","","","","","","","","","","","","","","","","","","","","","","","","","","","","","","","",""
"","","","","","rdk","41","308748","0.0-5.0-1.0-1.0-1.0-0.0-0.0-0.0-1.11","958","color_test","k","","true","[""d"",""k""]","k","-1","true","1","100","0","0","0","3","1","-1","2","300","300","[""hsl(0, 50%, 50%)"",""hsl(225, 50%, 50%)""]","[""hsl(225, 50%, 50%)"",""hsl(0, 50%, 50%)""]","0","0.55","0","circle","black","3","2","2","16.74137931034483","[3,16,17,17,17,17,17,17,17,17,17,17,17,17,17,17,17,17,17,17,17,17,17,17,17,17,17,17,17,17,17,17,17,17,17,17,17,17,17,17,17,17,17,17,17,17,17,17,17,17,17,17,17,17,17,17,17,17]","58","956","466","false","20","20","black","1","false","1","1","1920","932","k","staircase_color","","","","","",""
"","","","","","html-keyboard-response","42","309856","0.0-5.0-1.0-1.0-1.0-0.0-0.0-0.0-2.11","null","","null","<p style='font-size: 60px; color: green'>正确!</p>","","","","","","","","","","","","","","","","","","","","","","","","","","","","","","","","","","","","","","","","","","","","","","","","",""
"","","","","","html-keyboard-response","43","312462","0.0-5.0-1.0-1.0-1.0-0.0-0.0-1.0","null","","null","<p style='font-size: 35px; color: white'>您的正确率为： 100% 。平均反应时为：2018毫秒。</p>","","","","","","","","","","","","","","","","","","","","","","","","","","","","","","","","","","","","","","","","","","","","","","","","",""
"","","","","","html-keyboard-response","44","313576","0.0-5.0-1.0-1.0-1.0-1.0-0.0-0.0-0.0","null","fixation","null","<p style='font-size: 48px; color: white'>+</p >","","","","","","","","","","","","","","","","","","","","","","","","","","","","","","","","","","","","","","","","","","","","","","","","",""
"","","","","","rdk","45","316540","0.0-5.0-1.0-1.0-1.0-1.0-0.0-0.0-1.0","2366","color_test","k","","true","[""d"",""k""]","k","-1","true","1","100","0","0","0","3","1","-1","2","300","300","[""hsl(0, 50%, 50%)"",""hsl(225, 50%, 50%)""]","[""hsl(225, 50%, 50%)"",""hsl(0, 50%, 50%)""]","0","0.53","0","circle","black","3","2","2","16.87323943661972","[3,16,17,17,17,17,17,17,17,16,17,17,17,17,17,17,17,17,17,17,17,17,17,17,17,17,17,17,17,17,17,17,17,17,17,17,17,17,17,17,17,17,17,17,17,17,17,17,17,17,17,17,17,17,17,17,17,17,17,17,17,17,17,17,17,17,17,17,17,17,17,17,17,17,17,17,17,17,17,17,17,17,17,17,17,17,17,17,17,17,17,17,17,17,17,17,16,17,17,17,17,17,17,17,17,17,17,17,17,17,17,17,17,17,17,17,17,17,17,17,17,17,17,17,17,17,17,17,17,17,17,17,17,17,17,17,17,16,17,17,17,17]","142","956","466","false","20","20","black","1","false","1","1","1920","932","k","staircase_color","","","","","",""
"","","","","","html-keyboard-response","46","317650","0.0-5.0-1.0-1.0-1.0-1.0-0.0-0.0-2.0","null","","null","<p style='font-size: 60px; color: green'>正确!</p>","","","","","","","","","","","","","","","","","","","","","","","","","","","","","","","","","","","","","","","","","","","","","","","","",""
"","","","","","html-keyboard-response","47","318748","0.0-5.0-1.0-1.0-1.0-1.0-0.0-0.0-0.1","null","fixation","null","<p style='font-size: 48px; color: white'>+</p >","","","","","","","","","","","","","","","","","","","","","","","","","","","","","","","","","","","","","","","","","","","","","","","","",""
"","","","","","rdk","48","320996","0.0-5.0-1.0-1.0-1.0-1.0-0.0-0.0-1.1","1647","color_test","d","","true","[""d"",""k""]","d","-1","true","1","100","0","0","0","3","1","-1","2","300","300","[""hsl(0, 50%, 50%)"",""hsl(225, 50%, 50%)""]","[""hsl(0, 50%, 50%)"",""hsl(225, 50%, 50%)""]","0","0.53","0","circle","black","3","2","2","16.91919191919192","[12,17,17,17,17,17,16,17,17,17,17,17,17,17,17,17,17,17,17,17,17,17,17,17,17,17,17,17,17,17,17,17,17,17,17,17,17,17,17,17,17,17,17,17,17,17,17,17,17,17,17,17,17,17,17,17,17,17,17,17,17,17,17,17,17,17,17,17,17,17,17,17,17,17,17,17,17,17,17,17,17,17,17,17,17,17,17,17,16,16,17,17,17,17,17,17,17,17,17]","99","956","466","false","20","20","black","1","false","1","1","1920","932","d","staircase_color","","","","","",""
"","","","","","html-keyboard-response","49","322094","0.0-5.0-1.0-1.0-1.0-1.0-0.0-0.0-2.1","null","","null","<p style='font-size: 60px; color: green'>正确!</p>","","","","","","","","","","","","","","","","","","","","","","","","","","","","","","","","","","","","","","","","","","","","","","","","",""
"","","","","","html-keyboard-response","50","323194","0.0-5.0-1.0-1.0-1.0-1.0-0.0-0.0-0.2","null","fixation","null","<p style='font-size: 48px; color: white'>+</p >","","","","","","","","","","","","","","","","","","","","","","","","","","","","","","","","","","","","","","","","","","","","","","","","",""
"","","","","","rdk","51","326668","0.0-5.0-1.0-1.0-1.0-1.0-0.0-0.0-1.2","2876","color_test","k","","true","[""d"",""k""]","k","-1","true","1","100","0","0","0","3","1","-1","2","300","300","[""hsl(0, 50%, 50%)"",""hsl(225, 50%, 50%)""]","[""hsl(225, 50%, 50%)"",""hsl(0, 50%, 50%)""]","0","0.53","0","circle","black","3","2","2","16.820809248554912","[1,16,17,16,17,17,17,17,17,17,17,17,17,17,17,17,17,17,17,17,17,17,17,16,17,17,17,17,17,17,17,17,17,17,17,17,17,17,16,17,16,17,17,17,17,17,17,17,17,17,17,17,17,17,17,17,17,17,17,17,17,17,17,17,17,17,17,16,16,17,17,17,17,17,17,17,17,16,17,17,17,17,16,16,17,17,17,17,17,17,17,17,17,17,17,17,16,17,17,17,17,17,17,17,17,17,17,17,17,16,17,17,17,17,17,17,17,17,17,17,17,17,17,17,17,17,16,17,17,17,17,17,17,17,17,17,17,17,17,17,16,17,17,17,17,17,17,17,17,17,17,17,17,17,17,16,17,17,17,17,17,17,17,17,17,17,17,17,17,17,17,17,17]","173","956","466","false","20","20","black","1","false","1","1","1920","932","k","staircase_color","","","","","",""
"","","","","","html-keyboard-response","52","327771","0.0-5.0-1.0-1.0-1.0-1.0-0.0-0.0-2.2","null","","null","<p style='font-size: 60px; color: green'>正确!</p>","","","","","","","","","","","","","","","","","","","","","","","","","","","","","","","","","","","","","","","","","","","","","","","","",""
"","","","","","html-keyboard-response","53","328872","0.0-5.0-1.0-1.0-1.0-1.0-0.0-0.0-0.3","null","fixation","null","<p style='font-size: 48px; color: white'>+</p >","","","","","","","","","","","","","","","","","","","","","","","","","","","","","","","","","","","","","","","","","","","","","","","","",""
"","","","","","rdk","54","330645","0.0-5.0-1.0-1.0-1.0-1.0-0.0-0.0-1.3","1174","color_test","d","","true","[""d"",""k""]","d","-1","true","1","100","0","0","0","3","1","-1","2","300","300","[""hsl(0, 50%, 50%)"",""hsl(225, 50%, 50%)""]","[""hsl(0, 50%, 50%)"",""hsl(225, 50%, 50%)""]","0","0.53","0","circle","black","3","2","2","16.816901408450704","[6,16,17,17,17,17,17,17,17,17,17,17,17,17,17,17,17,17,16,17,17,17,17,17,17,17,17,17,17,17,17,17,17,17,17,17,17,17,17,17,17,17,17,17,17,17,17,17,17,17,17,17,17,17,17,17,17,17,17,17,17,17,17,17,17,17,17,17,17,17,17]","71","956","466","false","20","20","black","1","false","1","1","1920","932","d","staircase_color","","","","","",""
"","","","","","html-keyboard-response","55","331747","0.0-5.0-1.0-1.0-1.0-1.0-0.0-0.0-2.3","null","","null","<p style='font-size: 60px; color: green'>正确!</p>","","","","","","","","","","","","","","","","","","","","","","","","","","","","","","","","","","","","","","","","","","","","","","","","",""
"","","","","","html-keyboard-response","56","332852","0.0-5.0-1.0-1.0-1.0-1.0-0.0-0.0-0.4","null","fixation","null","<p style='font-size: 48px; color: white'>+</p >","","","","","","","","","","","","","","","","","","","","","","","","","","","","","","","","","","","","","","","","","","","","","","","","",""
"","","","","","rdk","57","336628","0.0-5.0-1.0-1.0-1.0-1.0-0.0-0.0-1.4","3165","color_test","d","","false","[""d"",""k""]","k","-1","true","1","100","0","0","0","3","1","-1","2","300","300","[""hsl(0, 50%, 50%)"",""hsl(225, 50%, 50%)""]","[""hsl(225, 50%, 50%)"",""hsl(0, 50%, 50%)""]","0","0.53","0","circle","black","3","2","2","16.936842105263157","[12,17,17,17,17,16,17,17,17,16,17,17,17,17,17,17,17,17,17,17,17,17,17,17,17,17,17,17,17,17,17,17,17,17,17,17,17,17,17,17,17,17,17,17,17,17,17,17,17,17,17,17,17,17,17,17,17,17,17,17,17,17,17,17,17,17,17,17,17,17,17,17,17,17,17,17,17,17,17,17,17,17,17,17,17,17,17,17,16,17,17,17,17,17,17,17,17,17,17,17,17,17,16,17,17,17,17,17,17,17,17,17,17,17,17,17,17,17,17,17,17,17,17,17,17,17,16,17,17,17,17,17,17,17,17,16,17,17,17,17,17,17,17,17,17,17,17,17,17,17,17,17,17,17,17,17,17,17,17,16,17,17,17,17,17,17,17,17,17,17,17,17,17,17,17,17,17,17,17,17,17,17,17,17,17,17,17,17,17,17]","190","956","466","false","20","20","black","1","false","1","1","1920","932","k","staircase_color","","","","","",""
"","","","","","html-keyboard-response","58","337735","0.0-5.0-1.0-1.0-1.0-1.0-0.0-0.0-2.4","null","","null","<p style='font-size: 60px; color: red'>错误!</p>","","","","","","","","","","","","","","","","","","","","","","","","","","","","","","","","","","","","","","","","","","","","","","","","",""
"","","","","","html-keyboard-response","59","338837","0.0-5.0-1.0-1.0-1.0-1.0-0.0-0.0-0.5","null","fixation","null","<p style='font-size: 48px; color: white'>+</p >","","","","","","","","","","","","","","","","","","","","","","","","","","","","","","","","","","","","","","","","","","","","","","","","",""
"","","","","","rdk","60","343012","0.0-5.0-1.0-1.0-1.0-1.0-0.0-0.0-1.5","3576","color_test","d","","true","[""d"",""k""]","d","-1","true","1","100","0","0","0","3","1","-1","2","300","300","[""hsl(0, 50%, 50%)"",""hsl(225, 50%, 50%)""]","[""hsl(0, 50%, 50%)"",""hsl(225, 50%, 50%)""]","0","0.53","0","circle","black","3","2","2","16.91627906976744","[7,17,17,17,17,17,16,17,17,17,17,17,17,17,17,16,17,17,17,17,17,17,17,17,17,17,17,17,17,17,17,17,17,17,16,17,17,17,17,17,17,17,17,17,17,17,17,17,17,17,17,16,16,17,17,17,17,17,17,17,17,17,17,17,17,17,17,17,17,17,17,17,17,17,17,16,17,17,17,17,17,17,17,16,17,17,17,17,17,17,17,17,17,17,17,17,17,17,17,17,17,17,17,17,17,17,17,17,17,17,17,17,17,17,17,17,17,17,17,17,17,17,17,17,17,17,17,17,17,17,17,17,17,17,17,17,17,17,17,17,17,17,17,17,17,17,17,17,17,17,17,17,17,17,17,17,17,17,17,17,17,17,17,17,17,17,17,17,17,17,17,17,17,17,17,17,17,17,16,17,17,17,17,17,17,17,17,17,17,17,17,17,17,17,17,17,17,17,17,17,17,17,17,17,17,17,17,17,17,17,17,17,17,17,17]","215","956","466","false","20","20","black","1","false","1","1","1920","932","d","staircase_color","","","","","",""
"","","","","","html-keyboard-response","61","344126","0.0-5.0-1.0-1.0-1.0-1.0-0.0-0.0-2.5","null","","null","<p style='font-size: 60px; color: green'>正确!</p>","","","","","","","","","","","","","","","","","","","","","","","","","","","","","","","","","","","","","","","","","","","","","","","","",""
"","","","","","html-keyboard-response","62","345230","0.0-5.0-1.0-1.0-1.0-1.0-0.0-0.0-0.6","null","fixation","null","<p style='font-size: 48px; color: white'>+</p >","","","","","","","","","","","","","","","","","","","","","","","","","","","","","","","","","","","","","","","","","","","","","","","","",""
"","","","","","rdk","63","349387","0.0-5.0-1.0-1.0-1.0-1.0-0.0-0.0-1.6","3560","color_test","k","","false","[""d"",""k""]","d","-1","true","1","100","0","0","0","3","1","-1","2","300","300","[""hsl(0, 50%, 50%)"",""hsl(225, 50%, 50%)""]","[""hsl(0, 50%, 50%)"",""hsl(225, 50%, 50%)""]","0","0.53","0","circle","black","3","2","2","16.976525821596244","[15,17,17,17,17,17,17,17,17,17,17,17,17,17,17,17,17,17,17,17,16,17,17,17,17,17,17,17,17,17,17,17,17,17,17,17,17,17,17,17,17,17,17,17,17,17,17,17,17,17,17,17,17,17,17,17,17,17,17,17,17,17,17,17,17,17,17,17,17,17,17,17,17,17,17,17,17,17,17,17,17,17,17,17,17,17,17,17,17,17,17,17,17,17,17,17,17,17,17,17,17,17,17,17,17,17,17,17,17,17,17,17,17,17,17,17,17,17,17,17,17,17,18,15,17,17,17,17,17,17,17,17,17,17,17,17,17,17,17,17,17,17,17,17,17,17,17,17,17,17,17,17,17,17,17,17,17,17,17,17,17,17,17,17,17,17,17,17,17,17,17,17,17,17,17,17,17,17,17,17,17,17,17,17,17,17,17,17,17,17,17,17,17,17,17,17,17,17,17,17,17,17,17,17,17,17,17,17,17,17,17,17,16]","213","956","466","false","20","20","black","1","false","1","1","1920","932","d","staircase_color","","","","","",""
"","","","","","html-keyboard-response","64","350503","0.0-5.0-1.0-1.0-1.0-1.0-0.0-0.0-2.6","null","","null","<p style='font-size: 60px; color: red'>错误!</p>","","","","","","","","","","","","","","","","","","","","","","","","","","","","","","","","","","","","","","","","","","","","","","","","",""
"","","","","","html-keyboard-response","65","351616","0.0-5.0-1.0-1.0-1.0-1.0-0.0-0.0-0.7","null","fixation","null","<p style='font-size: 48px; color: white'>+</p >","","","","","","","","","","","","","","","","","","","","","","","","","","","","","","","","","","","","","","","","","","","","","","","","",""
"","","","","","rdk","66","362764","0.0-5.0-1.0-1.0-1.0-1.0-0.0-0.0-1.7","10545","color_test","d","","false","[""d"",""k""]","k","-1","true","1","100","0","0","0","3","1","-1","2","300","300","[""hsl(0, 50%, 50%)"",""hsl(225, 50%, 50%)""]","[""hsl(225, 50%, 50%)"",""hsl(0, 50%, 50%)""]","0","0.53","0","circle","black","3","2","2","16.965244865718798","[8,17,17,17,17,17,17,17,17,17,17,17,17,17,17,17,17,17,17,17,17,17,17,17,17,17,17,17,17,17,17,17,17,17,17,17,17,17,17,17,17,17,17,17,17,17,17,17,17,16,17,17,17,17,17,17,17,17,17,17,17,17,17,17,17,17,17,17,17,17,17,17,17,17,17,17,17,17,17,17,17,17,17,17,17,17,17,17,17,17,17,17,17,17,17,17,17,17,17,17,17,17,17,17,17,16,17,17,17,17,17,17,17,17,17,17,17,17,17,17,17,17,17,16,17,17,17,17,17,17,17,17,17,17,17,17,17,17,17,17,17,17,17,17,17,17,17,16,17,17,17,17,17,17,17,17,17,17,17,17,17,17,17,17,17,16,17,17,16,17,17,17,17,17,17,17,17,17,17,17,17,17,17,17,17,17,17,17,17,17,17,17,17,17,17,17,17,17,17,17,17,17,17,17,17,17,17,17,16,17,17,17,17,17,17,17,17,17,17,17,17,17,16,17,17,17,17,17,17,17,17,17,17,17,17,17,17,17,17,17,17,17,17,17,17,17,17,17,17,17,17,17,17,17,17,17,17,17,17,17,17,17,17,17,17,17,17,17,17,17,17,17,17,17,17,17,17,17,17,17,17,16,17,17,17,17,17,17,17,17,17,17,17,17,17,17,17,17,17,17,17,17,17,17,17,17,17,17,17,17,17,17,17,17,17,17,17,17,17,17,17,17,17,17,17,17,17,17,17,17,17,17,17,17,17,17,17,17,17,17,17,17,17,17,17,17,17,17,17,17,17,17,17,17,17,17,17,17,17,17,17,17,17,17,17,17,17,17,17,17,17,17,17,17,17,17,17,17,17,17,16,17,17,17,17,17,17,17,17,17,17,17,17,17,17,17,17,17,17,17,17,17,17,17,17,17,17,17,17,17,17,17,17,17,17,17,17,17,17,17,17,17,17,17,17,17,17,17,17,17,17,17,17,17,17,17,17,17,17,17,17,17,17,17,17,17,17,17,17,17,17,17,17,17,17,17,17,17,17,17,17,17,17,17,17,17,17,17,17,17,17,17,17,17,17,17,17,17,17,17,17,17,17,17,17,17,17,17,17,17,17,17,17,17,17,17,17,17,17,17,17,17,17,17,17,17,17,17,17,17,17,17,17,17,17,17,17,16,17,17,17,17,17,17,17,17,17,17,17,17,17,17,17,17,17,17,17,17,17,17,17,17,17,17,17,17,17,17,17,17,17,17,17,17,17,17,17,17,17,17,16,16,17,17,17,17,17,17,17,17,17,17,17,17,17,17,17,17,17,17,17,17,17,17,17,17,17,17,17,17,17,17,17,17,17,17,17,17,17,17,17,17,17,17,17,17,17,17,17,17,17,17,17,17,17,17,17,17,17,17,17,17,17,17,17,17,17,17,17,17,17,17,17]","633","956","466","false","20","20","black","1","false","1","1","1920","932","k","staircase_color","","","","","",""
"","","","","","html-keyboard-response","67","363884","0.0-5.0-1.0-1.0-1.0-1.0-0.0-0.0-2.7","null","","null","<p style='font-size: 60px; color: red'>错误!</p>","","","","","","","","","","","","","","","","","","","","","","","","","","","","","","","","","","","","","","","","","","","","","","","","",""
"","","","","","html-keyboard-response","68","364983","0.0-5.0-1.0-1.0-1.0-1.0-0.0-0.0-0.8","null","fixation","null","<p style='font-size: 48px; color: white'>+</p >","","","","","","","","","","","","","","","","","","","","","","","","","","","","","","","","","","","","","","","","","","","","","","","","",""
"","","","","","rdk","69","367004","0.0-5.0-1.0-1.0-1.0-1.0-0.0-0.0-1.8","1409","color_test","k","","true","[""d"",""k""]","k","-1","true","1","100","0","0","0","3","1","-1","2","300","300","[""hsl(0, 50%, 50%)"",""hsl(225, 50%, 50%)""]","[""hsl(225, 50%, 50%)"",""hsl(0, 50%, 50%)""]","0","0.53","0","circle","black","3","2","2","16.94047619047619","[15,17,17,17,17,17,17,17,17,16,17,17,17,17,17,16,17,17,17,17,17,17,17,17,17,17,17,17,17,17,17,17,17,17,17,17,17,17,17,17,17,17,17,17,17,17,17,17,17,17,17,17,17,17,17,17,17,17,17,17,17,17,17,17,17,17,17,17,16,17,17,17,17,17,17,17,17,17,17,17,17,17,17,17]","84","956","466","false","20","20","black","1","false","1","1","1920","932","k","staircase_color","","","","","",""
"","","","","","html-keyboard-response","70","368123","0.0-5.0-1.0-1.0-1.0-1.0-0.0-0.0-2.8","null","","null","<p style='font-size: 60px; color: green'>正确!</p>","","","","","","","","","","","","","","","","","","","","","","","","","","","","","","","","","","","","","","","","","","","","","","","","",""
"","","","","","html-keyboard-response","71","369247","0.0-5.0-1.0-1.0-1.0-1.0-0.0-0.0-0.9","null","fixation","null","<p style='font-size: 48px; color: white'>+</p >","","","","","","","","","","","","","","","","","","","","","","","","","","","","","","","","","","","","","","","","","","","","","","","","",""
"","","","","","rdk","72","373084","0.0-5.0-1.0-1.0-1.0-1.0-0.0-0.0-1.9","3226","color_test","d","","true","[""d"",""k""]","d","-1","true","1","100","0","0","0","3","1","-1","2","300","300","[""hsl(0, 50%, 50%)"",""hsl(225, 50%, 50%)""]","[""hsl(0, 50%, 50%)"",""hsl(225, 50%, 50%)""]","0","0.53","0","circle","black","3","2","2","16.88144329896907","[2,16,17,17,17,17,17,17,16,17,17,17,17,17,17,17,17,17,17,17,17,17,17,17,17,17,17,17,17,16,17,17,17,17,17,17,17,17,17,17,17,17,17,17,17,17,17,17,17,17,17,17,17,17,17,17,17,17,17,16,17,17,17,17,17,17,17,17,17,17,17,17,17,17,17,17,17,17,17,17,17,17,17,17,17,17,17,17,17,17,17,17,17,16,17,17,17,17,17,17,17,17,17,17,17,17,17,17,16,17,17,17,17,17,17,17,17,17,17,17,17,17,17,17,17,17,17,17,17,17,17,17,17,17,17,17,17,17,17,17,17,17,17,17,17,17,17,16,17,17,17,17,17,17,17,17,17,17,17,17,16,17,17,17,17,17,17,17,17,17,17,17,17,17,17,17,17,17,17,17,17,17,17,17,17,17,17,17,17,17,17,17,17,17]","194","956","466","false","20","20","black","1","false","1","1","1920","932","d","staircase_color","","","","","",""
"","","","","","html-keyboard-response","73","374202","0.0-5.0-1.0-1.0-1.0-1.0-0.0-0.0-2.9","null","","null","<p style='font-size: 60px; color: green'>正确!</p>","","","","","","","","","","","","","","","","","","","","","","","","","","","","","","","","","","","","","","","","","","","","","","","","",""
"","","","","","html-keyboard-response","74","375308","0.0-5.0-1.0-1.0-1.0-1.0-0.0-0.0-0.10","null","fixation","null","<p style='font-size: 48px; color: white'>+</p >","","","","","","","","","","","","","","","","","","","","","","","","","","","","","","","","","","","","","","","","","","","","","","","","",""
"","","","","","rdk","75","378300","0.0-5.0-1.0-1.0-1.0-1.0-0.0-0.0-1.10","2380","color_test","d","","true","[""d"",""k""]","d","-1","true","1","100","0","0","0","3","1","-1","2","300","300","[""hsl(0, 50%, 50%)"",""hsl(225, 50%, 50%)""]","[""hsl(0, 50%, 50%)"",""hsl(225, 50%, 50%)""]","0","0.53","0","circle","black","3","2","2","16.88111888111888","[7,17,17,17,17,17,17,17,17,17,17,16,17,17,17,17,17,17,17,17,17,17,17,17,17,17,17,17,17,17,17,17,17,17,17,17,17,17,16,17,17,17,17,17,17,17,17,17,17,17,16,17,17,17,17,17,17,17,17,17,17,17,17,17,17,17,17,17,17,17,17,17,17,17,17,17,17,17,17,17,17,17,17,17,17,17,17,17,17,17,17,17,17,17,17,16,17,17,17,17,17,17,17,17,17,17,16,17,17,17,17,17,17,17,16,17,17,17,17,17,17,17,17,17,17,17,17,17,17,17,17,17,17,17,17,17,17,17,17,17,16,17,17]","143","956","466","false","20","20","black","1","false","1","1","1920","932","d","staircase_color","","","","","",""
"","","","","","html-keyboard-response","76","379410","0.0-5.0-1.0-1.0-1.0-1.0-0.0-0.0-2.10","null","","null","<p style='font-size: 60px; color: green'>正确!</p>","","","","","","","","","","","","","","","","","","","","","","","","","","","","","","","","","","","","","","","","","","","","","","","","",""
"","","","","","html-keyboard-response","77","380521","0.0-5.0-1.0-1.0-1.0-1.0-0.0-0.0-0.11","null","fixation","null","<p style='font-size: 48px; color: white'>+</p >","","","","","","","","","","","","","","","","","","","","","","","","","","","","","","","","","","","","","","","","","","","","","","","","",""
"","","","","","rdk","78","382733","0.0-5.0-1.0-1.0-1.0-1.0-0.0-0.0-1.11","1615","color_test","k","","true","[""d"",""k""]","k","-1","true","1","100","0","0","0","3","1","-1","2","300","300","[""hsl(0, 50%, 50%)"",""hsl(225, 50%, 50%)""]","[""hsl(225, 50%, 50%)"",""hsl(0, 50%, 50%)""]","0","0.53","0","circle","black","3","2","2","16.917525773195877","[9,17,17,17,17,17,17,17,17,17,17,17,17,17,17,17,17,17,17,17,17,17,17,17,17,17,17,17,17,17,17,17,17,17,17,17,17,17,17,17,17,17,17,17,17,17,17,17,17,17,17,17,17,17,17,17,17,17,17,17,17,17,17,17,17,17,17,17,17,17,17,17,17,17,17,17,17,17,17,17,17,17,17,17,17,17,17,17,17,17,17,17,17,17,17,17,17]","97","956","466","false","20","20","black","1","false","1","1","1920","932","k","staircase_color","","","","","",""
"","","","","","html-keyboard-response","79","383856","0.0-5.0-1.0-1.0-1.0-1.0-0.0-0.0-2.11","null","","null","<p style='font-size: 60px; color: green'>正确!</p>","","","","","","","","","","","","","","","","","","","","","","","","","","","","","","","","","","","","","","","","","","","","","","","","",""
"","","","","","html-keyboard-response","80","386469","0.0-5.0-1.0-1.0-1.0-1.0-0.0-1.0","null","","null","<p style='font-size: 35px; color: white'>您的正确率为： 75% 。平均反应时为：3128毫秒。</p>","","","","","","","","","","","","","","","","","","","","","","","","","","","","","","","","","","","","","","","","","","","","","","","","",""
"","","","","","html-keyboard-response","81","387569","0.0-5.0-1.0-1.0-1.0-2.0-0.0-0.0-0.0","null","fixation","null","<p style='font-size: 48px; color: white'>+</p >","","","","","","","","","","","","","","","","","","","","","","","","","","","","","","","","","","","","","","","","","","","","","","","","",""
"","","","","","rdk","82","389868","0.0-5.0-1.0-1.0-1.0-2.0-0.0-0.0-1.0","1703","color_test","k","","true","[""d"",""k""]","k","-1","true","1","100","0","0","0","3","1","-1","2","300","300","[""hsl(0, 50%, 50%)"",""hsl(225, 50%, 50%)""]","[""hsl(225, 50%, 50%)"",""hsl(0, 50%, 50%)""]","0","0.53","0","circle","black","3","2","2","16.931372549019606","[12,17,17,17,17,17,17,17,17,16,17,17,17,17,17,17,17,17,17,17,17,17,17,17,17,17,17,17,17,17,17,17,17,17,17,17,17,17,17,17,17,17,17,17,17,17,17,17,17,17,17,17,17,17,17,17,17,17,17,17,17,17,17,17,17,17,17,17,17,17,17,17,17,17,17,17,17,17,17,17,17,17,17,17,17,17,17,16,17,17,17,17,17,17,17,17,17,17,17,17,17,17]","102","956","466","false","20","20","black","1","false","1","1","1920","932","k","staircase_color","","","","","",""
"","","","","","html-keyboard-response","83","390982","0.0-5.0-1.0-1.0-1.0-2.0-0.0-0.0-2.0","null","","null","<p style='font-size: 60px; color: green'>正确!</p>","","","","","","","","","","","","","","","","","","","","","","","","","","","","","","","","","","","","","","","","","","","","","","","","",""
"","","","","","html-keyboard-response","84","392093","0.0-5.0-1.0-1.0-1.0-2.0-0.0-0.0-0.1","null","fixation","null","<p style='font-size: 48px; color: white'>+</p >","","","","","","","","","","","","","","","","","","","","","","","","","","","","","","","","","","","","","","","","","","","","","","","","",""
"","","","","","rdk","85","394460","0.0-5.0-1.0-1.0-1.0-2.0-0.0-0.0-1.1","1767","color_test","d","","true","[""d"",""k""]","d","-1","true","1","100","0","0","0","3","1","-1","2","300","300","[""hsl(0, 50%, 50%)"",""hsl(225, 50%, 50%)""]","[""hsl(0, 50%, 50%)"",""hsl(225, 50%, 50%)""]","0","0.53","0","circle","black","3","2","2","16.78301886792453","[2,15,17,17,17,17,17,17,17,16,17,17,17,17,17,17,17,17,17,17,17,17,17,17,17,16,17,17,17,17,17,17,17,17,17,17,17,17,17,17,17,17,17,17,17,17,17,16,17,17,17,17,17,17,17,16,17,17,17,17,17,17,17,17,17,17,17,17,17,17,17,17,17,17,17,17,17,17,17,17,17,17,17,16,17,17,17,17,17,17,17,17,17,17,17,16,17,17,17,17,17,17,17,17,17,17]","106","956","466","false","20","20","black","1","false","1","1","1920","932","d","staircase_color","","","","","",""
"","","","","","html-keyboard-response","86","395576","0.0-5.0-1.0-1.0-1.0-2.0-0.0-0.0-2.1","null","","null","<p style='font-size: 60px; color: green'>正确!</p>","","","","","","","","","","","","","","","","","","","","","","","","","","","","","","","","","","","","","","","","","","","","","","","","",""
"","","","","","html-keyboard-response","87","396687","0.0-5.0-1.0-1.0-1.0-2.0-0.0-0.0-0.2","null","fixation","null","<p style='font-size: 48px; color: white'>+</p >","","","","","","","","","","","","","","","","","","","","","","","","","","","","","","","","","","","","","","","","","","","","","","","","",""
"","","","","","rdk","88","399532","0.0-5.0-1.0-1.0-1.0-2.0-0.0-0.0-1.2","2233","color_test","k","","false","[""d"",""k""]","d","-1","true","1","100","0","0","0","3","1","-1","2","300","300","[""hsl(0, 50%, 50%)"",""hsl(225, 50%, 50%)""]","[""hsl(0, 50%, 50%)"",""hsl(225, 50%, 50%)""]","0","0.53","0","circle","black","3","2","2","16.940298507462686","[11,17,17,17,17,17,17,17,16,17,17,17,17,17,17,17,17,17,17,17,17,17,17,17,17,17,17,17,16,17,17,17,17,17,17,17,17,17,17,17,17,17,17,17,17,17,17,17,17,17,17,17,17,17,17,17,17,17,17,17,17,17,17,17,17,17,17,17,17,17,17,17,17,17,17,17,17,17,17,17,17,17,17,17,17,17,17,17,17,17,17,17,17,17,17,17,17,17,17,17,17,17,17,17,17,17,17,17,17,17,17,17,17,17,17,17,17,17,17,17,17,17,17,17,17,17,17,17,17,17,17,17,17,17]","134","956","466","false","20","20","black","1","false","1","1","1920","932","d","staircase_color","","","","","",""
"","","","","","html-keyboard-response","89","400651","0.0-5.0-1.0-1.0-1.0-2.0-0.0-0.0-2.2","null","","null","<p style='font-size: 60px; color: red'>错误!</p>","","","","","","","","","","","","","","","","","","","","","","","","","","","","","","","","","","","","","","","","","","","","","","","","",""
"","","","","","html-keyboard-response","90","401763","0.0-5.0-1.0-1.0-1.0-2.0-0.0-0.0-0.3","null","fixation","null","<p style='font-size: 48px; color: white'>+</p >","","","","","","","","","","","","","","","","","","","","","","","","","","","","","","","","","","","","","","","","","","","","","","","","",""
"","","","","","rdk","91","403884","0.0-5.0-1.0-1.0-1.0-2.0-0.0-0.0-1.3","1523","color_test","k","","true","[""d"",""k""]","k","-1","true","1","100","0","0","0","3","1","-1","2","300","300","[""hsl(0, 50%, 50%)"",""hsl(225, 50%, 50%)""]","[""hsl(225, 50%, 50%)"",""hsl(0, 50%, 50%)""]","0","0.53","0","circle","black","3","2","2","16.967032967032967","[16,17,17,17,15,17,17,17,17,17,17,17,17,17,17,17,17,17,17,17,17,17,17,17,17,17,17,17,17,17,17,17,17,17,17,17,17,17,17,17,17,17,17,17,17,17,17,17,17,17,17,17,17,17,17,17,17,17,17,17,17,17,17,17,17,17,17,17,17,17,17,17,17,17,17,17,17,17,17,17,17,17,17,17,17,17,17,17,17,17,17]","91","956","466","false","20","20","black","1","false","1","1","1920","932","k","staircase_color","","","","","",""
"","","","","","html-keyboard-response","92","404995","0.0-5.0-1.0-1.0-1.0-2.0-0.0-0.0-2.3","null","","null","<p style='font-size: 60px; color: green'>正确!</p>","","","","","","","","","","","","","","","","","","","","","","","","","","","","","","","","","","","","","","","","","","","","","","","","",""
"","","","","","html-keyboard-response","93","406105","0.0-5.0-1.0-1.0-1.0-2.0-0.0-0.0-0.4","null","fixation","null","<p style='font-size: 48px; color: white'>+</p >","","","","","","","","","","","","","","","","","","","","","","","","","","","","","","","","","","","","","","","","","","","","","","","","",""
"","","","","","rdk","94","408652","0.0-5.0-1.0-1.0-1.0-2.0-0.0-0.0-1.4","1949","color_test","k","","true","[""d"",""k""]","k","-1","true","1","100","0","0","0","3","1","-1","2","300","300","[""hsl(0, 50%, 50%)"",""hsl(225, 50%, 50%)""]","[""hsl(225, 50%, 50%)"",""hsl(0, 50%, 50%)""]","0","0.53","0","circle","black","3","2","2","16.871794871794872","[6,17,17,17,17,17,17,16,17,17,17,17,17,17,17,17,17,17,17,17,17,17,17,17,17,17,17,16,17,17,16,17,17,17,17,17,17,17,17,17,17,17,17,17,17,17,17,17,17,17,17,17,17,17,17,17,17,17,17,17,17,17,17,17,17,17,17,17,17,17,17,17,17,17,17,17,17,17,17,17,17,17,17,17,17,17,17,17,17,17,17,17,17,17,17,17,17,17,17,17,17,17,17,17,17,17,17,17,17,17,17,17,17,17,17,16,17]","117","956","466","false","20","20","black","1","false","1","1","1920","932","k","staircase_color","","","","","",""
"","","","","","html-keyboard-response","95","409751","0.0-5.0-1.0-1.0-1.0-2.0-0.0-0.0-2.4","null","","null","<p style='font-size: 60px; color: green'>正确!</p>","","","","","","","","","","","","","","","","","","","","","","","","","","","","","","","","","","","","","","","","","","","","","","","","",""
"","","","","","html-keyboard-response","96","410863","0.0-5.0-1.0-1.0-1.0-2.0-0.0-0.0-0.5","null","fixation","null","<p style='font-size: 48px; color: white'>+</p >","","","","","","","","","","","","","","","","","","","","","","","","","","","","","","","","","","","","","","","","","","","","","","","","",""
"","","","","","rdk","97","413372","0.0-5.0-1.0-1.0-1.0-2.0-0.0-0.0-1.5","1897","color_test","d","","true","[""d"",""k""]","d","-1","true","1","100","0","0","0","3","1","-1","2","300","300","[""hsl(0, 50%, 50%)"",""hsl(225, 50%, 50%)""]","[""hsl(0, 50%, 50%)"",""hsl(225, 50%, 50%)""]","0","0.53","0","circle","black","3","2","2","16.833333333333332","[2,15,17,17,17,17,17,17,17,17,17,17,17,17,16,17,17,17,17,17,17,17,17,17,17,17,17,17,17,17,17,17,17,17,17,17,17,17,17,17,17,17,17,17,17,17,17,17,17,17,17,17,17,17,17,17,17,17,17,17,17,17,17,17,17,17,17,17,17,17,17,17,17,17,17,17,17,17,17,17,16,17,17,17,17,17,17,17,17,17,17,17,17,17,17,17,17,17,17,17,17,17,17,17,17,17,17,17,17,17,17,17,17,17]","114","956","466","false","20","20","black","1","false","1","1","1920","932","d","staircase_color","","","","","",""
"","","","","","html-keyboard-response","98","414492","0.0-5.0-1.0-1.0-1.0-2.0-0.0-0.0-2.5","null","","null","<p style='font-size: 60px; color: green'>正确!</p>","","","","","","","","","","","","","","","","","","","","","","","","","","","","","","","","","","","","","","","","","","","","","","","","",""
"","","","","","html-keyboard-response","99","415592","0.0-5.0-1.0-1.0-1.0-2.0-0.0-0.0-0.6","null","fixation","null","<p style='font-size: 48px; color: white'>+</p >","","","","","","","","","","","","","","","","","","","","","","","","","","","","","","","","","","","","","","","","","","","","","","","","",""
"","","","","","rdk","100","418516","0.0-5.0-1.0-1.0-1.0-2.0-0.0-0.0-1.6","2328","color_test","k","","false","[""d"",""k""]","d","-1","true","1","100","0","0","0","3","1","-1","2","300","300","[""hsl(0, 50%, 50%)"",""hsl(225, 50%, 50%)""]","[""hsl(0, 50%, 50%)"",""hsl(225, 50%, 50%)""]","0","0.53","0","circle","black","3","2","2","16.864285714285714","[5,16,17,17,17,17,17,16,16,17,17,17,17,17,17,17,17,17,17,17,17,17,17,17,17,17,17,17,17,17,17,17,17,17,17,17,17,17,17,17,17,17,17,17,17,17,17,17,17,17,17,17,17,17,17,17,17,17,17,17,17,17,17,17,17,17,17,17,17,17,17,17,17,17,17,17,17,17,17,17,17,17,17,17,17,17,17,17,17,17,17,17,17,17,17,16,16,17,17,17,17,17,17,17,17,17,17,17,17,17,17,17,17,17,17,17,17,17,17,17,17,17,16,17,17,17,17,17,17,17,17,16,17,17,17,17,17,17,17,17]","140","956","466","false","20","20","black","1","false","1","1","1920","932","d","staircase_color","","","","","",""
"","","","","","html-keyboard-response","101","419620","0.0-5.0-1.0-1.0-1.0-2.0-0.0-0.0-2.6","null","","null","<p style='font-size: 60px; color: red'>错误!</p>","","","","","","","","","","","","","","","","","","","","","","","","","","","","","","","","","","","","","","","","","","","","","","","","",""
"","","","","","html-keyboard-response","102","420727","0.0-5.0-1.0-1.0-1.0-2.0-0.0-0.0-0.7","null","fixation","null","<p style='font-size: 48px; color: white'>+</p >","","","","","","","","","","","","","","","","","","","","","","","","","","","","","","","","","","","","","","","","","","","","","","","","",""
"","","","","","rdk","103","423380","0.0-5.0-1.0-1.0-1.0-2.0-0.0-0.0-1.7","2056","color_test","k","","true","[""d"",""k""]","k","-1","true","1","100","0","0","0","3","1","-1","2","300","300","[""hsl(0, 50%, 50%)"",""hsl(225, 50%, 50%)""]","[""hsl(225, 50%, 50%)"",""hsl(0, 50%, 50%)""]","0","0.53","0","circle","black","3","2","2","16.838709677419356","[2,16,17,17,17,17,17,16,17,17,17,17,17,17,17,17,17,17,17,17,17,17,17,17,17,17,17,17,17,17,17,17,17,16,17,17,17,17,17,17,17,17,17,17,17,17,17,17,17,17,17,17,17,17,17,17,17,17,17,17,17,17,17,17,17,17,17,17,17,17,17,17,17,17,17,17,17,17,16,17,17,17,17,17,17,17,17,17,17,17,17,17,17,17,17,17,17,17,17,17,17,17,17,17,17,16,17,17,17,17,17,17,17,17,17,17,17,17,17,17,17,17,17,17]","124","956","466","false","20","20","black","1","false","1","1","1920","932","k","staircase_color","","","","","",""
"","","","","","html-keyboard-response","104","424498","0.0-5.0-1.0-1.0-1.0-2.0-0.0-0.0-2.7","null","","null","<p style='font-size: 60px; color: green'>正确!</p>","","","","","","","","","","","","","","","","","","","","","","","","","","","","","","","","","","","","","","","","","","","","","","","","",""
"","","","","","html-keyboard-response","105","425611","0.0-5.0-1.0-1.0-1.0-2.0-0.0-0.0-0.8","null","fixation","null","<p style='font-size: 48px; color: white'>+</p >","","","","","","","","","","","","","","","","","","","","","","","","","","","","","","","","","","","","","","","","","","","","","","","","",""
"","","","","","rdk","106","429172","0.0-5.0-1.0-1.0-1.0-2.0-0.0-0.0-1.8","2949","color_test","k","","true","[""d"",""k""]","k","-1","true","1","100","0","0","0","3","1","-1","2","300","300","[""hsl(0, 50%, 50%)"",""hsl(225, 50%, 50%)""]","[""hsl(225, 50%, 50%)"",""hsl(0, 50%, 50%)""]","0","0.53","0","circle","black","3","2","2","16.89265536723164","[4,16,17,17,17,17,17,17,17,17,17,17,17,17,17,16,17,17,17,17,17,17,17,17,17,17,16,17,17,17,17,17,17,17,17,17,17,17,17,17,17,17,17,17,17,17,17,17,17,17,17,17,17,17,17,17,17,17,17,17,17,17,17,17,17,16,17,17,17,17,17,17,17,17,17,17,17,17,17,17,17,17,17,17,17,17,17,17,17,17,17,17,17,17,17,17,17,17,17,17,17,17,17,17,17,17,17,17,17,17,17,17,17,17,17,17,17,17,17,17,16,17,17,16,17,17,17,17,17,17,17,17,17,17,17,17,17,17,17,17,17,17,17,17,17,17,17,17,17,17,17,17,17,17,17,17,17,17,17,17,17,17,17,17,17,17,17,17,17,17,17,17,17,17,17,17,17]","177","956","466","false","20","20","black","1","false","1","1","1920","932","k","staircase_color","","","","","",""
"","","","","","html-keyboard-response","107","430276","0.0-5.0-1.0-1.0-1.0-2.0-0.0-0.0-2.8","null","","null","<p style='font-size: 60px; color: green'>正确!</p>","","","","","","","","","","","","","","","","","","","","","","","","","","","","","","","","","","","","","","","","","","","","","","","","",""
"","","","","","html-keyboard-response","108","431400","0.0-5.0-1.0-1.0-1.0-2.0-0.0-0.0-0.9","null","fixation","null","<p style='font-size: 48px; color: white'>+</p >","","","","","","","","","","","","","","","","","","","","","","","","","","","","","","","","","","","","","","","","","","","","","","","","",""
"","","","","","rdk","109","433108","0.0-5.0-1.0-1.0-1.0-2.0-0.0-0.0-1.9","1100","color_test","d","","true","[""d"",""k""]","d","-1","true","1","100","0","0","0","3","1","-1","2","300","300","[""hsl(0, 50%, 50%)"",""hsl(225, 50%, 50%)""]","[""hsl(0, 50%, 50%)"",""hsl(225, 50%, 50%)""]","0","0.53","0","circle","black","3","2","2","16.727272727272727","[3,15,17,17,17,17,16,17,17,17,17,17,17,17,17,17,17,17,17,17,17,17,17,17,17,17,17,17,17,17,17,17,17,17,17,17,17,17,17,17,17,16,17,17,17,17,17,17,17,17,17,17,17,17,17,17,17,17,17,17,17,17,17,17,17,17]","66","956","466","false","20","20","black","1","false","1","1","1920","932","d","staircase_color","","","","","",""
"","","","","","html-keyboard-response","110","434209","0.0-5.0-1.0-1.0-1.0-2.0-0.0-0.0-2.9","null","","null","<p style='font-size: 60px; color: green'>正确!</p>","","","","","","","","","","","","","","","","","","","","","","","","","","","","","","","","","","","","","","","","","","","","","","","","",""
"","","","","","html-keyboard-response","111","435321","0.0-5.0-1.0-1.0-1.0-2.0-0.0-0.0-0.10","null","fixation","null","<p style='font-size: 48px; color: white'>+</p >","","","","","","","","","","","","","","","","","","","","","","","","","","","","","","","","","","","","","","","","","","","","","","","","",""
"","","","","","rdk","112","437628","0.0-5.0-1.0-1.0-1.0-2.0-0.0-0.0-1.10","1697","color_test","k","","true","[""d"",""k""]","k","-1","true","1","100","0","0","0","3","1","-1","2","300","300","[""hsl(0, 50%, 50%)"",""hsl(225, 50%, 50%)""]","[""hsl(225, 50%, 50%)"",""hsl(0, 50%, 50%)""]","0","0.53","0","circle","black","3","2","2","16.931372549019606","[11,17,17,17,17,17,17,17,17,17,17,17,17,17,17,17,17,17,17,17,17,17,17,17,17,17,17,17,17,17,17,17,17,17,17,17,17,17,17,17,17,17,17,17,17,17,17,17,17,17,17,17,17,17,17,17,17,17,17,17,17,17,17,17,17,17,17,17,17,16,17,17,17,17,17,17,17,17,17,17,17,17,17,17,17,17,17,17,17,17,17,17,17,17,17,17,17,17,17,17,17,17]","102","956","466","false","20","20","black","1","false","1","1","1920","932","k","staircase_color","","","","","",""
"","","","","","html-keyboard-response","113","438751","0.0-5.0-1.0-1.0-1.0-2.0-0.0-0.0-2.10","null","","null","<p style='font-size: 60px; color: green'>正确!</p>","","","","","","","","","","","","","","","","","","","","","","","","","","","","","","","","","","","","","","","","","","","","","","","","",""
"","","","","","html-keyboard-response","114","439862","0.0-5.0-1.0-1.0-1.0-2.0-0.0-0.0-0.11","null","fixation","null","<p style='font-size: 48px; color: white'>+</p >","","","","","","","","","","","","","","","","","","","","","","","","","","","","","","","","","","","","","","","","","","","","","","","","",""
"","","","","","rdk","115","442524","0.0-5.0-1.0-1.0-1.0-2.0-0.0-0.0-1.11","2065","color_test","k","","false","[""d"",""k""]","d","-1","true","1","100","0","0","0","3","1","-1","2","300","300","[""hsl(0, 50%, 50%)"",""hsl(225, 50%, 50%)""]","[""hsl(0, 50%, 50%)"",""hsl(225, 50%, 50%)""]","0","0.53","0","circle","black","3","2","2","16.822580645161292","[1,16,17,17,17,17,17,17,17,17,17,17,16,17,17,17,17,17,17,17,17,17,17,16,17,17,17,17,18,17,17,17,17,17,17,17,17,17,17,17,17,16,17,17,17,17,17,17,17,17,17,17,17,17,17,17,17,17,17,17,17,17,17,17,17,17,17,17,17,17,16,17,17,17,17,17,17,17,17,17,17,17,17,17,17,17,17,17,17,17,17,17,17,17,17,17,17,17,17,17,17,17,17,17,17,16,17,16,17,17,17,17,17,17,17,17,17,17,17,17,17,17,17,17]","124","956","466","false","20","20","black","1","false","1","1","1920","932","d","staircase_color","","","","","",""
"","","","","","html-keyboard-response","116","443632","0.0-5.0-1.0-1.0-1.0-2.0-0.0-0.0-2.11","null","","null","<p style='font-size: 60px; color: red'>错误!</p>","","","","","","","","","","","","","","","","","","","","","","","","","","","","","","","","","","","","","","","","","","","","","","","","",""
"","","","","","html-keyboard-response","117","446249","0.0-5.0-1.0-1.0-1.0-2.0-0.0-1.0","null","","null","<p style='font-size: 35px; color: white'>您的正确率为： 75% 。平均反应时为：1939毫秒。</p>","","","","","","","","","","","","","","","","","","","","","","","","","","","","","","","","","","","","","","","","","","","","","","","","",""
"","","","","","html-keyboard-response","118","447363","0.0-5.0-1.0-1.0-1.0-3.0-0.0-0.0-0.0","null","fixation","null","<p style='font-size: 48px; color: white'>+</p >","","","","","","","","","","","","","","","","","","","","","","","","","","","","","","","","","","","","","","","","","","","","","","","","",""
"","","","","","rdk","119","451324","0.0-5.0-1.0-1.0-1.0-3.0-0.0-0.0-1.0","3360","color_test","d","","true","[""d"",""k""]","d","-1","true","1","100","0","0","0","3","1","-1","2","300","300","[""hsl(0, 50%, 50%)"",""hsl(225, 50%, 50%)""]","[""hsl(0, 50%, 50%)"",""hsl(225, 50%, 50%)""]","0","0.55","0","circle","black","3","2","2","16.940298507462686","[12,16,17,17,17,17,17,17,17,17,17,17,17,17,17,17,17,17,16,17,17,17,17,17,17,17,17,17,17,17,17,17,17,17,17,17,17,17,17,17,17,17,17,17,17,17,17,17,17,17,17,17,17,17,17,17,17,17,17,17,17,17,17,17,17,17,17,17,17,17,17,17,17,17,17,17,17,17,17,17,17,17,17,17,17,17,17,17,17,17,17,17,17,17,17,17,17,17,17,17,17,17,17,17,17,17,17,17,17,17,17,17,17,17,17,17,17,17,17,17,17,17,17,17,17,17,17,17,17,16,17,17,17,17,17,17,17,17,17,17,17,17,17,17,17,17,17,17,17,17,17,17,17,17,17,17,17,17,17,17,17,17,17,17,17,17,17,17,17,17,17,16,16,17,17,17,17,17,17,17,17,17,17,17,16,17,17,17,17,17,17,17,17,17,17,17,17,17,16,17,17]","201","956","466","false","20","20","black","1","false","1","1","1920","932","d","staircase_color","","","","","",""
"","","","","","html-keyboard-response","120","452425","0.0-5.0-1.0-1.0-1.0-3.0-0.0-0.0-2.0","null","","null","<p style='font-size: 60px; color: green'>正确!</p>","","","","","","","","","","","","","","","","","","","","","","","","","","","","","","","","","","","","","","","","","","","","","","","","",""
"","","","","","html-keyboard-response","121","453527","0.0-5.0-1.0-1.0-1.0-3.0-0.0-0.0-0.1","null","fixation","null","<p style='font-size: 48px; color: white'>+</p >","","","","","","","","","","","","","","","","","","","","","","","","","","","","","","","","","","","","","","","","","","","","","","","","",""
"","","","","","rdk","122","456556","0.0-5.0-1.0-1.0-1.0-3.0-0.0-0.0-1.1","2430","color_test","k","","true","[""d"",""k""]","k","-1","true","1","100","0","0","0","3","1","-1","2","300","300","[""hsl(0, 50%, 50%)"",""hsl(225, 50%, 50%)""]","[""hsl(225, 50%, 50%)"",""hsl(0, 50%, 50%)""]","0","0.55","0","circle","black","3","2","2","16.84931506849315","[1,16,17,17,17,17,17,16,17,17,17,17,17,17,17,17,17,17,17,17,17,17,17,17,17,17,17,17,17,17,17,17,17,17,17,17,17,17,17,17,17,17,17,18,15,17,17,17,17,17,17,17,17,17,17,17,17,17,17,17,17,17,17,17,17,17,17,17,17,17,16,17,17,17,17,17,17,17,17,17,17,17,17,17,17,17,17,17,17,17,17,17,17,17,17,17,17,17,17,17,17,17,17,17,17,17,17,17,17,16,17,17,17,17,17,17,17,17,17,17,17,17,17,17,17,17,16,17,17,17,17,17,17,17,17,17,17,17,17,17,17,17,17,17,17,17]","146","956","466","false","20","20","black","1","false","1","1","1920","932","k","staircase_color","","","","","",""
"","","","","","html-keyboard-response","123","457670","0.0-5.0-1.0-1.0-1.0-3.0-0.0-0.0-2.1","null","","null","<p style='font-size: 60px; color: green'>正确!</p>","","","","","","","","","","","","","","","","","","","","","","","","","","","","","","","","","","","","","","","","","","","","","","","","",""
"","","","","","html-keyboard-response","124","458784","0.0-5.0-1.0-1.0-1.0-3.0-0.0-0.0-0.2","null","fixation","null","<p style='font-size: 48px; color: white'>+</p >","","","","","","","","","","","","","","","","","","","","","","","","","","","","","","","","","","","","","","","","","","","","","","","","",""
"","","","","","rdk","125","460755","0.0-5.0-1.0-1.0-1.0-3.0-0.0-0.0-1.2","1374","color_test","d","","true","[""d"",""k""]","d","-1","true","1","100","0","0","0","3","1","-1","2","300","300","[""hsl(0, 50%, 50%)"",""hsl(225, 50%, 50%)""]","[""hsl(0, 50%, 50%)"",""hsl(225, 50%, 50%)""]","0","0.55","0","circle","black","3","2","2","16.902439024390244","[11,17,17,17,17,17,17,17,17,17,17,17,17,17,17,16,17,17,17,17,17,17,17,17,17,17,17,17,17,17,17,17,17,17,17,17,17,17,16,17,17,17,17,17,17,17,17,17,17,17,17,17,17,17,17,17,17,17,17,17,17,17,17,17,17,17,17,17,17,17,17,17,17,17,17,17,17,17,17,17,17,17]","82","956","466","false","20","20","black","1","false","1","1","1920","932","d","staircase_color","","","","","",""
"","","","","","html-keyboard-response","126","461860","0.0-5.0-1.0-1.0-1.0-3.0-0.0-0.0-2.2","null","","null","<p style='font-size: 60px; color: green'>正确!</p>","","","","","","","","","","","","","","","","","","","","","","","","","","","","","","","","","","","","","","","","","","","","","","","","",""
"","","","","","html-keyboard-response","127","462986","0.0-5.0-1.0-1.0-1.0-3.0-0.0-0.0-0.3","null","fixation","null","<p style='font-size: 48px; color: white'>+</p >","","","","","","","","","","","","","","","","","","","","","","","","","","","","","","","","","","","","","","","","","","","","","","","","",""
"","","","","","rdk","128","465188","0.0-5.0-1.0-1.0-1.0-3.0-0.0-0.0-1.3","1591","color_test","k","","true","[""d"",""k""]","k","-1","true","1","100","0","0","0","3","1","-1","2","300","300","[""hsl(0, 50%, 50%)"",""hsl(225, 50%, 50%)""]","[""hsl(225, 50%, 50%)"",""hsl(0, 50%, 50%)""]","0","0.55","0","circle","black","3","2","2","16.905263157894737","[13,17,16,17,17,17,17,17,17,17,17,17,16,17,17,17,17,17,17,17,17,17,17,17,17,16,17,17,17,17,17,17,17,17,17,17,17,17,17,17,17,17,17,16,17,17,16,17,17,17,17,17,17,17,17,17,17,17,17,17,17,17,17,17,17,17,17,17,17,17,17,17,17,17,17,17,17,17,17,17,17,17,17,17,17,17,17,17,17,17,17,17,17,17,17]","95","956","466","false","20","20","black","1","false","1","1","1920","932","k","staircase_color","","","","","",""
"","","","","","html-keyboard-response","129","466294","0.0-5.0-1.0-1.0-1.0-3.0-0.0-0.0-2.3","null","","null","<p style='font-size: 60px; color: green'>正确!</p>","","","","","","","","","","","","","","","","","","","","","","","","","","","","","","","","","","","","","","","","","","","","","","","","",""
"","","","","","html-keyboard-response","130","467405","0.0-5.0-1.0-1.0-1.0-3.0-0.0-0.0-0.4","null","fixation","null","<p style='font-size: 48px; color: white'>+</p >","","","","","","","","","","","","","","","","","","","","","","","","","","","","","","","","","","","","","","","","","","","","","","","","",""
"","","","","","rdk","131","469180","0.0-5.0-1.0-1.0-1.0-3.0-0.0-0.0-1.4","1164","color_test","d","","true","[""d"",""k""]","d","-1","true","1","100","0","0","0","3","1","-1","2","300","300","[""hsl(0, 50%, 50%)"",""hsl(225, 50%, 50%)""]","[""hsl(0, 50%, 50%)"",""hsl(225, 50%, 50%)""]","0","0.55","0","circle","black","3","2","2","16.87142857142857","[10,16,17,17,17,17,17,17,17,17,17,17,17,17,17,17,17,16,17,17,17,17,17,17,17,17,17,17,17,17,17,17,17,17,17,17,17,17,17,17,17,17,17,17,17,17,17,17,17,17,17,17,17,17,17,17,17,17,17,17,17,17,17,17,17,17,17,17,17,17]","70","956","466","false","20","20","black","1","false","1","1","1920","932","d","staircase_color","","","","","",""
"","","","","","html-keyboard-response","132","470282","0.0-5.0-1.0-1.0-1.0-3.0-0.0-0.0-2.4","null","","null","<p style='font-size: 60px; color: green'>正确!</p>","","","","","","","","","","","","","","","","","","","","","","","","","","","","","","","","","","","","","","","","","","","","","","","","",""
"","","","","","html-keyboard-response","133","471406","0.0-5.0-1.0-1.0-1.0-3.0-0.0-0.0-0.5","null","fixation","null","<p style='font-size: 48px; color: white'>+</p >","","","","","","","","","","","","","","","","","","","","","","","","","","","","","","","","","","","","","","","","","","","","","","","","",""
"","","","","","rdk","134","473572","0.0-5.0-1.0-1.0-1.0-3.0-0.0-0.0-1.5","1555","color_test","k","","true","[""d"",""k""]","k","-1","true","1","100","0","0","0","3","1","-1","2","300","300","[""hsl(0, 50%, 50%)"",""hsl(225, 50%, 50%)""]","[""hsl(225, 50%, 50%)"",""hsl(0, 50%, 50%)""]","0","0.55","0","circle","black","3","2","2","16.892473118279568","[10,17,17,17,16,17,17,17,17,17,17,17,17,17,17,17,17,16,17,17,17,17,17,17,17,17,17,17,17,17,17,17,17,17,16,17,17,17,17,17,17,17,17,17,17,17,17,17,17,17,17,17,17,17,17,17,17,17,17,17,17,17,17,17,17,17,17,17,17,17,17,17,17,17,17,17,17,17,17,17,17,17,17,17,17,17,17,17,17,17,17,17,17]","93","956","466","false","20","20","black","1","false","1","1","1920","932","k","staircase_color","","","","","",""
"","","","","","html-keyboard-response","135","474698","0.0-5.0-1.0-1.0-1.0-3.0-0.0-0.0-2.5","null","","null","<p style='font-size: 60px; color: green'>正确!</p>","","","","","","","","","","","","","","","","","","","","","","","","","","","","","","","","","","","","","","","","","","","","","","","","",""
"","","","","","html-keyboard-response","136","475821","0.0-5.0-1.0-1.0-1.0-3.0-0.0-0.0-0.6","null","fixation","null","<p style='font-size: 48px; color: white'>+</p >","","","","","","","","","","","","","","","","","","","","","","","","","","","","","","","","","","","","","","","","","","","","","","","","",""
"","","","","","rdk","137","477708","0.0-5.0-1.0-1.0-1.0-3.0-0.0-0.0-1.6","1277","color_test","d","","true","[""d"",""k""]","d","-1","true","1","100","0","0","0","3","1","-1","2","300","300","[""hsl(0, 50%, 50%)"",""hsl(225, 50%, 50%)""]","[""hsl(0, 50%, 50%)"",""hsl(225, 50%, 50%)""]","0","0.55","0","circle","black","3","2","2","16.92105263157895","[12,17,16,17,17,17,17,17,17,17,17,17,17,17,17,17,17,17,17,17,17,17,17,17,17,17,17,17,17,17,17,17,17,17,17,17,17,17,17,17,17,17,17,17,17,17,17,17,17,17,17,17,17,17,17,17,17,17,17,17,17,17,17,17,17,17,17,17,17,17,17,17,17,17,17,17]","76","956","466","false","20","20","black","1","false","1","1","1920","932","d","staircase_color","","","","","",""
"","","","","","html-keyboard-response","138","478817","0.0-5.0-1.0-1.0-1.0-3.0-0.0-0.0-2.6","null","","null","<p style='font-size: 60px; color: green'>正确!</p>","","","","","","","","","","","","","","","","","","","","","","","","","","","","","","","","","","","","","","","","","","","","","","","","",""
"","","","","","html-keyboard-response","139","479929","0.0-5.0-1.0-1.0-1.0-3.0-0.0-0.0-0.7","null","fixation","null","<p style='font-size: 48px; color: white'>+</p >","","","","","","","","","","","","","","","","","","","","","","","","","","","","","","","","","","","","","","","","","","","","","","","","",""
"","","","","","rdk","140","482932","0.0-5.0-1.0-1.0-1.0-3.0-0.0-0.0-1.7","2394","color_test","k","","true","[""d"",""k""]","k","-1","true","1","100","0","0","0","3","1","-1","2","300","300","[""hsl(0, 50%, 50%)"",""hsl(225, 50%, 50%)""]","[""hsl(225, 50%, 50%)"",""hsl(0, 50%, 50%)""]","0","0.55","0","circle","black","3","2","2","16.881944444444443","[5,17,17,17,17,17,17,17,17,17,17,17,17,17,17,17,17,17,16,16,17,17,17,17,17,17,17,17,17,17,17,17,17,16,17,17,17,17,17,17,17,17,16,17,17,17,17,17,17,17,17,17,17,17,17,17,17,17,17,17,17,17,17,17,17,17,17,17,17,17,17,17,17,17,17,17,17,17,17,17,17,17,17,17,17,17,17,17,17,17,17,17,17,16,17,17,17,17,17,17,17,17,17,17,17,17,17,17,17,17,17,17,17,17,17,17,17,17,17,17,17,17,17,17,17,17,17,17,17,17,17,17,17,17,17,17,17,17,17,17,17,17,17,17]","144","956","466","false","20","20","black","1","false","1","1","1920","932","k","staircase_color","","","","","",""
"","","","","","html-keyboard-response","141","484033","0.0-5.0-1.0-1.0-1.0-3.0-0.0-0.0-2.7","null","","null","<p style='font-size: 60px; color: green'>正确!</p>","","","","","","","","","","","","","","","","","","","","","","","","","","","","","","","","","","","","","","","","","","","","","","","","",""
"","","","","","html-keyboard-response","142","485158","0.0-5.0-1.0-1.0-1.0-3.0-0.0-0.0-0.8","null","fixation","null","<p style='font-size: 48px; color: white'>+</p >","","","","","","","","","","","","","","","","","","","","","","","","","","","","","","","","","","","","","","","","","","","","","","","","",""
"","","","","","rdk","143","488124","0.0-5.0-1.0-1.0-1.0-3.0-0.0-0.0-1.8","2356","color_test","k","","true","[""d"",""k""]","k","-1","true","1","100","0","0","0","3","1","-1","2","300","300","[""hsl(0, 50%, 50%)"",""hsl(225, 50%, 50%)""]","[""hsl(225, 50%, 50%)"",""hsl(0, 50%, 50%)""]","0","0.55","0","circle","black","3","2","2","16.907801418439718","[9,17,17,17,17,17,17,17,17,17,16,17,17,17,17,17,17,17,17,17,17,17,17,17,17,17,17,17,17,17,17,17,17,17,16,17,17,17,17,17,17,17,17,17,17,17,16,17,17,17,17,17,17,17,17,17,17,17,17,17,17,17,17,17,17,17,17,17,17,17,17,17,17,17,17,17,17,17,17,17,17,17,17,17,17,17,17,17,17,17,17,17,17,16,16,17,17,17,17,17,17,17,17,17,17,17,17,17,17,17,17,17,17,17,17,17,17,17,17,17,17,17,17,17,17,17,17,17,17,17,17,17,17,17,17,17,17,17,17,17,17]","141","956","466","false","20","20","black","1","false","1","1","1920","932","k","staircase_color","","","","","",""
"","","","","","html-keyboard-response","144","489240","0.0-5.0-1.0-1.0-1.0-3.0-0.0-0.0-2.8","null","","null","<p style='font-size: 60px; color: green'>正确!</p>","","","","","","","","","","","","","","","","","","","","","","","","","","","","","","","","","","","","","","","","","","","","","","","","",""
"","","","","","html-keyboard-response","145","490352","0.0-5.0-1.0-1.0-1.0-3.0-0.0-0.0-0.9","null","fixation","null","<p style='font-size: 48px; color: white'>+</p >","","","","","","","","","","","","","","","","","","","","","","","","","","","","","","","","","","","","","","","","","","","","","","","","",""
"","","","","","rdk","146","493084","0.0-5.0-1.0-1.0-1.0-3.0-0.0-0.0-1.9","2122","color_test","k","","true","[""d"",""k""]","k","-1","true","1","100","0","0","0","3","1","-1","2","300","300","[""hsl(0, 50%, 50%)"",""hsl(225, 50%, 50%)""]","[""hsl(225, 50%, 50%)"",""hsl(0, 50%, 50%)""]","0","0.55","0","circle","black","3","2","2","16.96062992125984","[14,17,17,17,17,17,17,17,17,17,17,17,17,17,17,17,17,17,17,17,17,17,17,17,17,17,17,17,17,17,17,17,17,17,17,17,17,17,17,17,17,17,17,17,17,17,17,17,17,17,17,17,17,17,16,17,17,17,17,17,17,17,17,17,17,17,17,17,17,16,17,17,17,17,17,17,17,17,17,17,17,17,17,17,17,17,17,17,17,17,17,17,17,17,17,17,17,17,17,17,17,17,17,17,17,17,17,17,17,17,17,17,17,17,17,17,17,17,17,17,17,17,17,17,17,17,17]","127","956","466","false","20","20","black","1","false","1","1","1920","932","k","staircase_color","","","","","",""
"","","","","","html-keyboard-response","147","494186","0.0-5.0-1.0-1.0-1.0-3.0-0.0-0.0-2.9","null","","null","<p style='font-size: 60px; color: green'>正确!</p>","","","","","","","","","","","","","","","","","","","","","","","","","","","","","","","","","","","","","","","","","","","","","","","","",""
"","","","","","html-keyboard-response","148","495284","0.0-5.0-1.0-1.0-1.0-3.0-0.0-0.0-0.10","null","fixation","null","<p style='font-size: 48px; color: white'>+</p >","","","","","","","","","","","","","","","","","","","","","","","","","","","","","","","","","","","","","","","","","","","","","","","","",""
"","","","","","rdk","149","497539","0.0-5.0-1.0-1.0-1.0-3.0-0.0-0.0-1.10","1657","color_test","d","","true","[""d"",""k""]","d","-1","true","1","100","0","0","0","3","1","-1","2","300","300","[""hsl(0, 50%, 50%)"",""hsl(225, 50%, 50%)""]","[""hsl(0, 50%, 50%)"",""hsl(225, 50%, 50%)""]","0","0.55","0","circle","black","3","2","2","16.91919191919192","[10,17,17,17,17,17,17,17,17,17,17,17,17,17,17,17,17,17,17,17,17,17,17,17,17,17,17,17,17,17,17,17,17,17,17,17,17,17,17,17,16,17,17,17,17,17,17,17,17,17,17,17,17,17,17,17,17,17,17,17,17,17,17,17,17,17,17,17,17,17,17,17,17,17,17,17,17,17,17,17,17,17,17,17,17,17,17,17,17,17,17,17,17,17,17,17,17,17,17]","99","956","466","false","20","20","black","1","false","1","1","1920","932","d","staircase_color","","","","","",""
"","","","","","html-keyboard-response","150","498655","0.0-5.0-1.0-1.0-1.0-3.0-0.0-0.0-2.10","null","","null","<p style='font-size: 60px; color: green'>正确!</p>","","","","","","","","","","","","","","","","","","","","","","","","","","","","","","","","","","","","","","","","","","","","","","","","",""
"","","","","","html-keyboard-response","151","499780","0.0-5.0-1.0-1.0-1.0-3.0-0.0-0.0-0.11","null","fixation","null","<p style='font-size: 48px; color: white'>+</p >","","","","","","","","","","","","","","","","","","","","","","","","","","","","","","","","","","","","","","","","","","","","","","","","",""
"","","","","","rdk","152","502044","0.0-5.0-1.0-1.0-1.0-3.0-0.0-0.0-1.11","1653","color_test","d","","true","[""d"",""k""]","d","-1","true","1","100","0","0","0","3","1","-1","2","300","300","[""hsl(0, 50%, 50%)"",""hsl(225, 50%, 50%)""]","[""hsl(0, 50%, 50%)"",""hsl(225, 50%, 50%)""]","0","0.55","0","circle","black","3","2","2","16.78787878787879","[2,16,17,17,17,16,17,17,17,17,17,17,17,17,17,17,17,17,17,17,17,17,17,17,17,17,17,16,16,17,17,17,17,17,17,17,17,17,17,17,17,17,17,17,17,17,17,17,17,17,17,17,17,17,17,17,17,17,17,16,17,17,17,17,17,17,17,17,17,17,17,17,17,17,17,17,17,17,17,17,17,17,17,17,17,17,16,17,17,17,17,17,17,17,17,17,17,17,17]","99","956","466","false","20","20","black","1","false","1","1","1920","932","d","staircase_color","","","","","",""
"","","","","","html-keyboard-response","153","503169","0.0-5.0-1.0-1.0-1.0-3.0-0.0-0.0-2.11","null","","null","<p style='font-size: 60px; color: green'>正确!</p>","","","","","","","","","","","","","","","","","","","","","","","","","","","","","","","","","","","","","","","","","","","","","","","","",""
"","","","","","html-keyboard-response","154","505773","0.0-5.0-1.0-1.0-1.0-3.0-0.0-1.0","null","","null","<p style='font-size: 35px; color: white'>您的正确率为： 100% 。平均反应时为：1911毫秒。</p>","","","","","","","","","","","","","","","","","","","","","","","","","","","","","","","","","","","","","","","","","","","","","","","","",""
"","","","","","html-keyboard-response","155","513012","0.0-5.0-1.0-1.0-2.0","6639","instruction_taskSeparate"," ","
    <div style=""text-align: left; color: white; padding: 10px""> 
      <p>现在是运动方向判断</p>
      <p>您需要<span style=""font-weight: bold"">忽略点的颜色</span>并判断一致的运动方向是向左还是向右:</p >
        <ul>
          <li><span style=""font-weight: bold"">向左</span>，请按键盘 <span style=""font-weight: bold"">左键</span></li>
          <li><span style=""font-weight: bold"">向右</span>，请按键盘 <span style=""font-weight: bold"">右键</span> </li>
        </ul>
      <p>准备好后请按空格键开始</p>
    </div>","","","","","","","","","","","","","","","","","","","","","","","","","","","","","","","","","","","","","","","","","","","","","","","","",""
"","","","","","html-keyboard-response","156","514122","0.0-5.0-1.0-1.0-3.0-0.0-0.0-0.0-0.0","null","fixation","null","<p style='font-size: 48px; color: white'>+</p >","","","","","","","","","","","","","","","","","","","","","","","","","","","","","","","","","","","","","","","","","","","","","","","","",""
"","","","","","rdk","157","518452","0.0-5.0-1.0-1.0-3.0-0.0-0.0-0.0-1.0","3721","motion_test","arrowleft","","true","[""ArrowLeft"",""ArrowRight""]","ArrowLeft","-1","true","1","100","180","0.1","0","3","1","-1","2","300","300","[""white""]","[""hsl(0, 50%, 50%)"",""hsl(225, 50%, 50%)""]","0","0.5","0","circle","black","3","2","2","16.955156950672645","[12,16,17,17,17,17,17,17,17,17,17,17,17,16,17,17,17,17,17,17,17,17,17,17,17,17,17,17,17,17,17,17,17,17,17,17,17,17,17,17,17,17,17,17,17,17,17,17,17,17,17,17,17,17,17,17,17,17,17,17,17,17,17,17,17,17,17,17,17,17,17,17,17,17,17,17,17,17,17,17,17,17,17,17,17,17,17,17,17,17,17,17,17,17,17,17,17,17,17,17,16,17,17,17,17,17,17,17,17,17,17,17,17,17,17,17,17,17,17,17,17,17,17,17,17,17,17,17,17,17,17,17,17,17,17,17,17,17,17,17,17,17,17,17,17,17,17,17,17,17,17,17,17,17,17,17,17,17,17,17,17,17,17,17,17,17,17,17,17,17,17,17,16,17,17,17,17,17,17,17,17,17,17,17,17,16,17,17,17,17,17,17,17,17,17,17,17,17,17,17,17,17,17,17,17,17,17,17,17,17,17,17,17,17,17,17,17,17,17,17,17,17,17]","223","956","466","false","20","20","black","1","false","1","1","1920","932","ArrowLeft","staircase_motion","","","","","",""
"","","","","","html-keyboard-response","158","519574","0.0-5.0-1.0-1.0-3.0-0.0-0.0-0.0-2.0","null","","null","<p style='font-size: 60px; color: green'>正确!</p>","","","","","","","","","","","","","","","","","","","","","","","","","","","","","","","","","","","","","","","","","","","","","","","","",""
"","","","","","html-keyboard-response","159","520675","0.0-5.0-1.0-1.0-3.0-0.0-0.0-0.0-0.1","null","fixation","null","<p style='font-size: 48px; color: white'>+</p >","","","","","","","","","","","","","","","","","","","","","","","","","","","","","","","","","","","","","","","","","","","","","","","","",""
"","","","","","rdk","160","526508","0.0-5.0-1.0-1.0-3.0-0.0-0.0-0.0-1.1","5221","motion_test","arrowright","","true","[""ArrowLeft"",""ArrowRight""]","ArrowRight","-1","true","1","100","0","0.1","0","3","1","-1","2","300","300","[""white""]","[""hsl(0, 50%, 50%)"",""hsl(225, 50%, 50%)""]","0","0.5","0","circle","black","3","2","2","16.94888178913738","[7,17,16,17,17,17,16,17,17,17,17,17,17,17,17,17,17,17,17,17,17,17,17,17,17,17,17,17,17,17,17,17,17,17,17,17,17,17,17,17,17,17,17,17,17,17,17,17,17,17,17,17,17,17,17,17,17,17,17,17,17,17,17,17,17,17,17,17,17,17,17,17,17,17,17,17,17,16,17,17,17,17,17,17,17,17,17,16,17,17,17,17,17,17,17,17,17,17,17,17,17,17,17,17,17,16,17,17,17,17,17,17,17,17,17,17,17,17,17,17,17,17,17,17,17,17,17,17,17,17,17,17,17,17,17,17,17,17,17,17,17,17,17,17,17,17,17,17,17,17,17,17,17,17,17,17,17,17,17,17,17,17,17,17,17,17,17,17,17,17,17,17,17,17,17,17,17,17,17,17,17,17,17,17,17,17,17,17,17,17,17,17,17,17,17,17,17,17,17,17,17,17,17,17,17,17,17,17,17,17,17,17,17,17,17,17,17,17,17,17,17,17,17,17,17,17,17,17,17,17,17,17,17,17,17,17,17,17,17,17,17,17,16,17,17,17,17,17,17,17,17,17,17,17,17,17,17,17,17,17,17,17,17,17,17,17,17,17,17,17,17,17,17,17,17,17,17,17,17,17,17,17,17,17,17,17,17,17,17,17,17,17,17,17,17,17,17,17,17,17,17,17,17,17,17,17,17,17,17,17,17,17,17]","313","956","466","false","20","20","black","1","false","1","1","1920","932","ArrowRight","staircase_motion","","","","","",""
"","","","","","html-keyboard-response","161","527620","0.0-5.0-1.0-1.0-3.0-0.0-0.0-0.0-2.1","null","","null","<p style='font-size: 60px; color: green'>正确!</p>","","","","","","","","","","","","","","","","","","","","","","","","","","","","","","","","","","","","","","","","","","","","","","","","",""
"","","","","","html-keyboard-response","162","528728","0.0-5.0-1.0-1.0-3.0-0.0-0.0-0.0-0.2","null","fixation","null","<p style='font-size: 48px; color: white'>+</p >","","","","","","","","","","","","","","","","","","","","","","","","","","","","","","","","","","","","","","","","","","","","","","","","",""
"","","","","","rdk","163","532460","0.0-5.0-1.0-1.0-3.0-0.0-0.0-0.0-1.2","3120","motion_test","arrowleft","","true","[""ArrowLeft"",""ArrowRight""]","ArrowLeft","-1","true","1","100","180","0.1","0","3","1","-1","2","300","300","[""white""]","[""hsl(0, 50%, 50%)"",""hsl(225, 50%, 50%)""]","0","0.5","0","circle","black","3","2","2","16.898395721925134","[5,15,17,17,17,16,17,17,17,17,17,16,17,17,17,17,17,17,17,17,17,17,17,17,17,17,17,17,17,17,17,17,17,17,17,17,17,17,17,17,17,17,17,17,17,17,17,17,17,17,17,17,17,17,17,16,17,17,17,17,17,17,17,17,17,17,17,17,17,17,17,17,17,17,17,17,17,17,17,17,17,17,17,17,17,17,17,17,17,17,16,17,17,17,17,17,17,17,17,17,17,17,17,17,17,17,17,17,17,17,17,17,17,17,17,17,17,17,17,17,17,17,17,17,17,17,17,17,17,17,17,17,17,17,17,17,17,17,17,17,17,17,17,17,17,17,16,17,17,17,17,17,17,17,17,17,17,17,17,17,17,17,17,17,17,17,17,17,17,17,17,17,17,17,17,17,17,17,17,17,17,17,17,17,17,17,17]","187","956","466","false","20","20","black","1","false","1","1","1920","932","ArrowLeft","staircase_motion","","","","","",""
"","","","","","html-keyboard-response","164","533572","0.0-5.0-1.0-1.0-3.0-0.0-0.0-0.0-2.2","null","","null","<p style='font-size: 60px; color: green'>正确!</p>","","","","","","","","","","","","","","","","","","","","","","","","","","","","","","","","","","","","","","","","","","","","","","","","",""
"","","","","","html-keyboard-response","165","534674","0.0-5.0-1.0-1.0-3.0-0.0-0.0-0.0-0.3","null","fixation","null","<p style='font-size: 48px; color: white'>+</p >","","","","","","","","","","","","","","","","","","","","","","","","","","","","","","","","","","","","","","","","","","","","","","","","",""
"","","","","","rdk","166","538316","0.0-5.0-1.0-1.0-3.0-0.0-0.0-0.0-1.3","3041","motion_test","arrowright","","true","[""ArrowLeft"",""ArrowRight""]","ArrowRight","-1","true","1","100","0","0.1","0","3","1","-1","2","300","300","[""white""]","[""hsl(0, 50%, 50%)"",""hsl(225, 50%, 50%)""]","0","0.5","0","circle","black","3","2","2","16.863387978142075","[2,16,17,17,17,17,17,17,17,17,17,17,17,17,17,17,17,17,17,17,17,17,17,17,17,16,17,17,17,17,17,17,17,17,17,17,17,17,17,17,17,17,17,17,17,17,17,17,17,17,17,17,17,17,17,17,17,17,17,17,17,17,17,17,16,17,17,17,17,17,17,17,17,17,17,17,17,17,17,17,17,17,17,17,17,17,17,17,17,17,17,17,17,17,17,17,17,17,17,17,17,17,16,17,17,17,17,17,17,17,17,17,17,17,17,17,17,18,15,16,17,17,17,17,17,17,17,17,17,17,17,17,17,17,17,17,17,17,17,17,17,17,17,16,16,17,17,17,17,17,17,17,17,17,17,17,17,17,17,17,16,17,17,17,17,17,17,16,17,17,17,17,17,17,17,17,17,17,17,17,17,17,17]","183","956","466","false","20","20","black","1","false","1","1","1920","932","ArrowRight","staircase_motion","","","","","",""
"","","","","","html-keyboard-response","167","539438","0.0-5.0-1.0-1.0-3.0-0.0-0.0-0.0-2.3","null","","null","<p style='font-size: 60px; color: green'>正确!</p>","","","","","","","","","","","","","","","","","","","","","","","","","","","","","","","","","","","","","","","","","","","","","","","","",""
"","","","","","html-keyboard-response","168","540551","0.0-5.0-1.0-1.0-3.0-0.0-0.0-0.0-0.4","null","fixation","null","<p style='font-size: 48px; color: white'>+</p >","","","","","","","","","","","","","","","","","","","","","","","","","","","","","","","","","","","","","","","","","","","","","","","","",""
"","","","","","rdk","169","549316","0.0-5.0-1.0-1.0-3.0-0.0-0.0-0.0-1.4","8152","motion_test","arrowright","","true","[""ArrowLeft"",""ArrowRight""]","ArrowRight","-1","true","1","100","0","0.1","0","3","1","-1","2","300","300","[""white""]","[""hsl(0, 50%, 50%)"",""hsl(225, 50%, 50%)""]","0","0.5","0","circle","black","3","2","2","16.96523517382413","[12,17,17,17,17,17,17,17,17,17,17,17,17,17,17,17,17,17,17,17,17,17,17,17,17,17,17,17,17,17,17,17,17,17,17,17,17,17,17,17,17,16,17,17,17,17,17,17,17,17,17,17,17,17,17,17,17,17,17,17,16,17,17,17,17,17,17,17,17,17,17,17,17,17,17,17,17,17,17,17,17,17,17,17,17,17,17,17,17,17,17,17,17,17,17,17,17,17,16,17,17,17,17,17,17,17,17,17,17,17,17,17,17,16,17,17,17,17,17,17,17,17,17,17,17,17,17,17,17,17,17,17,17,17,17,17,17,17,17,17,17,17,17,17,17,17,17,17,17,17,17,17,17,17,17,17,17,17,17,16,17,17,17,17,17,17,17,17,17,17,17,17,17,17,17,17,17,17,17,17,17,17,17,17,17,17,17,17,17,17,17,17,17,17,17,17,17,17,17,17,17,17,17,17,17,17,17,16,17,17,17,17,17,17,17,17,17,17,17,16,17,17,17,17,17,17,17,17,17,16,17,17,17,17,17,17,17,17,17,17,17,17,17,16,17,17,17,17,17,17,17,17,17,17,17,17,17,17,17,17,17,17,17,17,17,17,17,17,17,17,17,17,17,17,17,17,17,17,17,16,17,17,17,16,17,17,17,17,17,17,17,17,17,17,17,17,17,17,17,17,17,17,17,17,17,17,17,17,17,17,17,17,17,17,17,17,17,17,17,17,17,17,17,17,17,17,17,17,17,17,16,17,17,17,17,17,17,17,17,17,17,17,17,17,17,17,17,17,17,17,17,17,17,17,17,17,17,17,17,17,17,17,17,17,17,17,17,17,17,17,17,17,17,17,17,17,17,17,17,17,17,17,17,17,17,17,17,17,17,17,17,17,17,17,17,17,17,17,17,17,17,17,17,17,17,17,17,17,17,17,17,17,17,17,17,17,17,17,17,17,17,17,17,17,17,17,17,17,17,17,17,17,17,17,17,17,17,17,17,17,17,17,17,17,17,17,17,17,17,17,17,17,17,17,17,17,17,17,17,17,17,17,17,17,17,17,17,17,17,17,17,17,17,17,17,17,17,17,17,17,17,17,17,17,17,17,17,17,17]","489","956","466","false","20","20","black","1","false","1","1","1920","932","ArrowRight","staircase_motion","","","","","",""
"","","","","","html-keyboard-response","170","550432","0.0-5.0-1.0-1.0-3.0-0.0-0.0-0.0-2.4","null","","null","<p style='font-size: 60px; color: green'>正确!</p>","","","","","","","","","","","","","","","","","","","","","","","","","","","","","","","","","","","","","","","","","","","","","","","","",""
"","","","","","html-keyboard-response","171","551554","0.0-5.0-1.0-1.0-3.0-0.0-0.0-0.0-0.5","null","fixation","null","<p style='font-size: 48px; color: white'>+</p >","","","","","","","","","","","","","","","","","","","","","","","","","","","","","","","","","","","","","","","","","","","","","","","","",""
"","","","","","rdk","172","556068","0.0-5.0-1.0-1.0-3.0-0.0-0.0-0.0-1.5","3903","motion_test","arrowright","","false","[""ArrowLeft"",""ArrowRight""]","ArrowLeft","-1","true","1","100","180","0.1","0","3","1","-1","2","300","300","[""white""]","[""hsl(0, 50%, 50%)"",""hsl(225, 50%, 50%)""]","0","0.5","0","circle","black","3","2","2","16.96153846153846","[11,17,17,17,17,17,17,17,17,17,17,17,17,17,17,17,17,17,17,17,17,17,17,17,17,17,17,17,17,17,17,17,17,17,16,17,17,17,17,17,17,17,17,17,17,17,17,17,16,17,17,17,17,17,17,17,17,17,17,17,17,17,17,17,17,17,17,17,17,17,18,15,17,17,17,17,17,17,17,17,17,17,17,17,17,17,17,17,17,17,17,17,17,17,17,17,17,17,17,17,17,17,17,17,17,17,17,17,17,17,17,17,17,17,17,17,17,17,17,17,17,17,17,17,17,17,17,17,17,17,17,17,17,17,17,17,17,17,17,17,17,17,17,17,17,17,17,17,17,17,17,17,17,17,17,17,17,17,17,17,17,17,17,17,17,17,17,17,17,17,17,17,17,17,17,17,17,17,17,17,17,17,17,17,17,17,17,17,17,17,17,17,17,17,17,17,17,17,17,17,17,17,17,17,17,17,17,17,17,17,17,17,17,17,17,17,17,17,17,17,17,17,17,17,17,17,17,17,17,17,17,17,17,17]","234","956","466","false","20","20","black","1","false","1","1","1920","932","ArrowLeft","staircase_motion","","","","","",""
"","","","","","html-keyboard-response","173","557177","0.0-5.0-1.0-1.0-3.0-0.0-0.0-0.0-2.5","null","","null","<p style='font-size: 60px; color: red'>错误!</p>","","","","","","","","","","","","","","","","","","","","","","","","","","","","","","","","","","","","","","","","","","","","","","","","",""
"","","","","","html-keyboard-response","174","558286","0.0-5.0-1.0-1.0-3.0-0.0-0.0-0.0-0.6","null","fixation","null","<p style='font-size: 48px; color: white'>+</p >","","","","","","","","","","","","","","","","","","","","","","","","","","","","","","","","","","","","","","","","","","","","","","","","",""
"","","","","","rdk","175","562588","0.0-5.0-1.0-1.0-3.0-0.0-0.0-0.0-1.6","3705","motion_test","arrowleft","","false","[""ArrowLeft"",""ArrowRight""]","ArrowRight","-1","true","1","100","0","0.1","0","3","1","-1","2","300","300","[""white""]","[""hsl(0, 50%, 50%)"",""hsl(225, 50%, 50%)""]","0","0.5","0","circle","black","3","2","2","16.93243243243243","[11,17,17,17,17,17,17,17,17,17,17,17,17,17,17,17,17,17,17,17,17,17,17,17,17,17,17,17,17,17,17,17,17,17,17,17,17,17,17,17,17,17,17,17,17,17,17,17,17,17,17,17,17,17,17,17,17,17,17,17,17,17,17,17,17,17,17,17,17,17,17,17,17,17,17,17,17,16,17,17,17,17,17,17,17,17,17,17,17,17,17,17,17,17,17,17,17,17,17,17,17,17,17,17,17,17,17,17,17,16,16,17,17,17,17,17,16,16,17,17,17,17,17,17,17,17,16,17,17,17,17,17,17,17,17,17,17,17,17,17,16,17,17,17,17,17,17,17,17,17,17,17,17,16,17,17,17,17,17,17,17,17,17,16,17,17,17,17,17,17,17,17,17,17,17,17,17,17,17,17,17,17,17,17,17,17,17,17,17,17,17,17,17,17,17,17,17,17,17,17,17,17,17,17,17,17,17,17,17,17,17,17,17,17,17,17,17,17,17,17,17,17]","222","956","466","false","20","20","black","1","false","1","1","1920","932","ArrowRight","staircase_motion","","","","","",""
"","","","","","html-keyboard-response","176","563688","0.0-5.0-1.0-1.0-3.0-0.0-0.0-0.0-2.6","null","","null","<p style='font-size: 60px; color: red'>错误!</p>","","","","","","","","","","","","","","","","","","","","","","","","","","","","","","","","","","","","","","","","","","","","","","","","",""
"","","","","","html-keyboard-response","177","564789","0.0-5.0-1.0-1.0-3.0-0.0-0.0-0.0-0.7","null","fixation","null","<p style='font-size: 48px; color: white'>+</p >","","","","","","","","","","","","","","","","","","","","","","","","","","","","","","","","","","","","","","","","","","","","","","","","",""
"","","","","","rdk","178","572444","0.0-5.0-1.0-1.0-3.0-0.0-0.0-0.0-1.7","7047","motion_test","arrowleft","","true","[""ArrowLeft"",""ArrowRight""]","ArrowLeft","-1","true","1","100","180","0.1","0","3","1","-1","2","300","300","[""white""]","[""hsl(0, 50%, 50%)"",""hsl(225, 50%, 50%)""]","0","0.5","0","circle","black","3","2","2","16.96445497630332","[12,16,17,17,17,17,17,17,17,17,17,17,17,17,17,17,17,17,17,17,17,17,17,17,17,17,17,17,16,17,17,17,17,17,17,17,17,17,17,17,17,17,17,17,17,17,17,17,17,17,17,17,17,17,17,17,17,17,17,17,17,17,17,17,17,17,17,17,17,17,17,17,17,17,17,17,17,17,17,17,17,17,17,17,17,17,17,17,17,17,17,17,17,17,17,17,17,17,17,17,17,17,17,17,17,17,16,17,17,17,17,17,17,17,17,17,17,17,17,17,17,17,17,17,17,17,17,17,17,17,17,17,17,17,17,17,17,17,17,17,17,17,17,17,17,17,17,17,17,17,17,17,17,17,17,17,17,17,17,17,17,17,17,17,17,17,17,17,17,17,17,17,17,17,17,17,17,17,17,17,17,17,17,17,17,17,17,17,17,17,17,17,17,17,17,17,17,17,17,17,17,17,17,17,17,17,17,17,17,17,17,17,17,17,17,17,17,17,16,17,17,17,17,17,17,17,16,17,17,17,17,17,17,17,17,17,17,17,17,17,17,17,17,17,17,17,17,17,17,17,17,17,16,17,17,17,17,17,17,17,17,17,17,17,17,17,17,17,17,17,17,17,17,17,17,17,17,17,17,17,17,17,17,17,17,17,17,17,17,17,17,17,17,17,17,17,17,17,17,17,17,17,17,17,17,17,17,17,17,17,17,17,17,16,17,17,17,17,17,17,17,17,17,17,17,17,16,17,17,17,17,17,17,17,17,17,17,17,17,17,17,17,17,17,17,17,17,17,17,17,17,17,17,17,17,17,17,17,17,17,17,17,17,17,17,17,17,17,17,17,17,17,17,17,17,17,17,17,17,17,17,16,17,17,17,17,17,17,17,17,17,17,17,17,17,17,17,17,17,17,17,17,17,17,17,17,17,17,17,17,17,17,17,17,17,17,17,17,17,16,17,17]","422","956","466","false","20","20","black","1","false","1","1","1920","932","ArrowLeft","staircase_motion","","","","","",""
"","","","","","html-keyboard-response","179","573555","0.0-5.0-1.0-1.0-3.0-0.0-0.0-0.0-2.7","null","","null","<p style='font-size: 60px; color: green'>正确!</p>","","","","","","","","","","","","","","","","","","","","","","","","","","","","","","","","","","","","","","","","","","","","","","","","",""
"","","","","","html-keyboard-response","180","574668","0.0-5.0-1.0-1.0-3.0-0.0-0.0-0.0-0.8","null","fixation","null","<p style='font-size: 48px; color: white'>+</p >","","","","","","","","","","","","","","","","","","","","","","","","","","","","","","","","","","","","","","","","","","","","","","","","",""
"","","","","","rdk","181","578308","0.0-5.0-1.0-1.0-3.0-0.0-0.0-0.0-1.8","3039","motion_test","arrowright","","true","[""ArrowLeft"",""ArrowRight""]","ArrowRight","-1","true","1","100","0","0.1","0","3","1","-1","2","300","300","[""white""]","[""hsl(0, 50%, 50%)"",""hsl(225, 50%, 50%)""]","0","0.5","0","circle","black","3","2","2","16.939560439560438","[8,17,17,17,17,17,17,17,17,17,17,17,17,17,17,17,17,17,17,17,17,17,17,17,17,17,17,17,17,17,17,17,17,17,17,17,17,17,17,17,17,17,17,17,17,17,17,17,17,17,17,17,17,17,17,17,17,17,17,17,17,17,17,17,17,17,17,17,17,17,17,17,17,17,17,17,17,17,17,17,17,16,17,17,17,17,17,17,17,17,17,16,17,17,17,17,17,17,17,17,17,17,17,17,17,17,17,17,17,17,17,17,17,17,17,17,17,17,17,17,17,17,17,17,17,17,17,17,17,17,17,17,17,17,17,17,17,17,17,17,17,17,17,17,17,17,17,17,17,17,17,17,17,17,17,17,17,17,17,17,17,17,17,17,17,17,17,17,17,17,17,17,17,17,17,17,17,17,17,17,17,17]","182","956","466","false","20","20","black","1","false","1","1","1920","932","ArrowRight","staircase_motion","","","","","",""
"","","","","","html-keyboard-response","182","579426","0.0-5.0-1.0-1.0-3.0-0.0-0.0-0.0-2.8","null","","null","<p style='font-size: 60px; color: green'>正确!</p>","","","","","","","","","","","","","","","","","","","","","","","","","","","","","","","","","","","","","","","","","","","","","","","","",""
"","","","","","html-keyboard-response","183","580532","0.0-5.0-1.0-1.0-3.0-0.0-0.0-0.0-0.9","null","fixation","null","<p style='font-size: 48px; color: white'>+</p >","","","","","","","","","","","","","","","","","","","","","","","","","","","","","","","","","","","","","","","","","","","","","","","","",""
"","","","","","rdk","184","583876","0.0-5.0-1.0-1.0-3.0-0.0-0.0-0.0-1.9","2747","motion_test","arrowright","","true","[""ArrowLeft"",""ArrowRight""]","ArrowRight","-1","true","1","100","0","0.1","0","3","1","-1","2","300","300","[""white""]","[""hsl(0, 50%, 50%)"",""hsl(225, 50%, 50%)""]","0","0.5","0","circle","black","3","2","2","16.96951219512195","[14,17,17,17,17,17,17,17,17,17,17,17,16,17,17,17,17,17,17,17,17,17,17,17,17,17,17,17,17,17,17,17,17,17,17,17,17,17,17,17,17,17,17,17,17,17,17,17,17,17,17,17,17,17,17,17,17,17,17,17,17,17,17,17,17,17,17,17,17,17,17,17,17,17,17,17,17,17,17,17,17,17,17,17,17,17,17,17,17,17,17,17,17,17,17,17,17,17,17,17,16,17,17,17,17,17,17,17,17,17,17,17,17,17,17,17,17,17,17,17,17,17,17,17,17,17,17,17,17,17,17,17,17,17,17,17,17,17,17,17,17,17,17,17,17,17,17,17,17,17,17,17,17,17,17,17,17,17,17,17,17,17,17,17]","164","956","466","false","20","20","black","1","false","1","1","1920","932","ArrowRight","staircase_motion","","","","","",""
"","","","","","html-keyboard-response","185","584977","0.0-5.0-1.0-1.0-3.0-0.0-0.0-0.0-2.9","null","","null","<p style='font-size: 60px; color: green'>正确!</p>","","","","","","","","","","","","","","","","","","","","","","","","","","","","","","","","","","","","","","","","","","","","","","","","",""
"","","","","","html-keyboard-response","186","586089","0.0-5.0-1.0-1.0-3.0-0.0-0.0-0.0-0.10","null","fixation","null","<p style='font-size: 48px; color: white'>+</p >","","","","","","","","","","","","","","","","","","","","","","","","","","","","","","","","","","","","","","","","","","","","","","","","",""
"","","","","","rdk","187","590875","0.0-5.0-1.0-1.0-3.0-0.0-0.0-0.0-1.10","4181","motion_test","arrowleft","","true","[""ArrowLeft"",""ArrowRight""]","ArrowLeft","-1","true","1","100","180","0.1","0","3","1","-1","2","300","300","[""white""]","[""hsl(0, 50%, 50%)"",""hsl(225, 50%, 50%)""]","0","0.5","0","circle","black","3","2","2","16.888446215139442","[1,14,17,17,17,17,17,17,17,17,17,17,17,17,17,17,17,17,17,17,17,17,17,17,17,17,17,17,17,17,17,17,17,17,17,17,17,17,17,17,17,17,17,17,17,17,17,17,17,17,17,17,17,17,17,17,17,17,17,17,17,17,17,17,17,17,17,17,17,17,16,17,17,17,17,17,17,17,17,17,17,17,17,17,17,16,17,17,17,17,17,17,17,17,17,17,17,17,17,17,17,17,17,17,17,17,17,17,17,17,17,17,17,17,17,17,17,17,17,17,17,17,17,17,17,17,17,17,17,17,17,17,17,17,17,17,17,17,17,17,17,16,17,17,17,17,17,17,17,17,17,17,17,17,17,17,16,17,17,17,17,17,17,17,17,17,17,17,17,17,17,17,16,17,17,17,17,17,17,17,17,17,17,17,17,16,16,17,17,17,17,17,17,17,17,17,17,17,17,17,17,17,17,16,17,17,17,17,17,17,17,17,17,17,17,17,17,17,17,17,17,17,17,17,17,17,17,17,17,17,17,17,17,17,17,17,17,17,17,17,17,17,17,17,17,17,17,17,17,16,17]","251","956","466","false","20","20","black","1","false","1","1","1920","932","ArrowLeft","staircase_motion","","","","","",""
"","","","","","html-keyboard-response","188","591983","0.0-5.0-1.0-1.0-3.0-0.0-0.0-0.0-2.10","null","","null","<p style='font-size: 60px; color: green'>正确!</p>","","","","","","","","","","","","","","","","","","","","","","","","","","","","","","","","","","","","","","","","","","","","","","","","",""
"","","","","","html-keyboard-response","189","593106","0.0-5.0-1.0-1.0-3.0-0.0-0.0-0.0-0.11","null","fixation","null","<p style='font-size: 48px; color: white'>+</p >","","","","","","","","","","","","","","","","","","","","","","","","","","","","","","","","","","","","","","","","","","","","","","","","",""
