"success","timeout","failed_images","failed_audio","failed_video","trial_type","trial_index","time_elapsed","internal_node_id","rt","part","response","stimulus","correct","choices","correct_choice","trial_duration","response_ends_trial","number_of_apertures","number_of_dots","coherent_direction","coherence","opposite_coherence","dot_radius","dot_side_length","dot_life","move_distance","aperture_width","aperture_height","dot_color","dot_color_final","color_change_delay","target_color_proportion","motion_change_delay","dot_shape","background_color","RDK_type","aperture_type","reinsert_type","frame_rate","frame_rate_array","number_of_frames","aperture_center_x","aperture_center_y","fixation_cross","fixation_cross_width","fixation_cross_height","fixation_cross_color","fixation_cross_thickness","border","border_thickness","border_color","canvas_width","canvas_height","correct_response","data_label","task","difficulty","isMatch","association","label","task_type"
"true","false","[]","[]","[]","preload","0","7","0.0-0.0","","","","","","","","","","","","","","","","","","","","","","","","","","","","","","","","","","","","","","","","","","","","","","","","","","","","",""
"true","","","","","fullscreen","1","3313","0.0-1.0","1836","fullScreen","","","","","","","","","","","","","","","","","","","","","","","","","","","","","","","","","","","","","","","","","","","","","","","","","","",""
"","","","","","survey","2","13600","0.0-2.0","9795","survey","{""sex"":""女"",""age"":23,""hands"":""右"",""color_blindness"":""都不是""}","","","","","","","","","","","","","","","","","","","","","","","","","","","","","","","","","","","","","","","","","","","","","","","","","",""
"","","","","","survey-text","3","21527","0.0-3.0","7457","color_test","{""Q0"":""BE""}","","","","","","","","","","","","","","","","","","","","","","","","","","","","","","","","","","","","","","","","","","","","","","","","","",""
"","","","","","html-keyboard-response","4","49489","0.0-4.0","27508","instruction_beginning"," ","
      <div style=""text-align: left; color: white"">
        <h3 style=""text-align: center; font-size: 30px; margin: 0;"">欢迎参与本实验</h3>
          <p>为充分保障您的权利，请确保您已经知晓并同意《参与实验同意书》以及《数据公开知情同意书》，</p>
          <p>如果您未见过上述内容，请咨询实验员 ，</p>
          <p>如果您选择继续实验，则表示您已经清楚两份知情同意书的内容并同意 。</p>
          <p>在整个实验中，您需要完成三项任务，具体的任务要求会在后面说明 ，</p>
          <p>请按空格键进入实验</p >
      </div>","","","","","","","","","","","","","","","","","","","","","","","","","","","","","","","","","","","","","","","","","","","","","","","","",""
"","","","","","html-keyboard-response","5","54144","0.0-5.0-0.0","4196","instruction_getThreshold"," ","
    <div style=""text-align: left; color: white; padding: 10px""> 
      <h3 style=""text-align: center; font-size: 30px; margin: 10px"">欢迎进入实验！请仔细阅读以下文字</h3>
      <p>在正式开始前，我们将通过一个快速测试为您制定合适的难度水平。<p>
      <p>接下来，屏幕上会呈现一些运动的彩色圆点，</p>
      <p>如果任务要求您<span style=""font-weight: bold"">判断散点图的一致运动方向</span><p>
      <p>您需要<span style=""font-weight: bold"">忽略点的颜色</span>并判断一致的运动方向是向左还是向右:</p >
      <ul>
        <li><span style=""font-weight: bold"">向左</span>，请按<span style=""font-weight: bold"">键盘左键 <— </span></li>
        <li><span style=""font-weight: bold"">向右</span>，请按<span style=""font-weight: bold"">键盘右键 —> </span> </li>
      </ul>
      <p>如果任务要求您<span style=""font-weight: bold"">判断散点图的整体颜色（即大多数点的颜色）是红色还是蓝色</span><p>
      <p>您需要<span style=""font-weight: bold"">忽略点的运动方向</span>并判断整体颜色:</p >
      <ul>
          <li>整体为 <span style=""color: hsl(0, 50%, 50%)"">红色</span>，请按键盘 <span style=""color: hsl(0, 50%, 50%)"">""D"" 键</span></li>
          <li>整体为 <span style=""color: hsl(225, 50%, 50%)"">蓝色</span>，请按键盘 <span style=""color: hsl(225, 50%, 50%)"">""k"" 键</span> </li>
        </ul>
      <p>如有疑问请向主试咨询，没有则按下空格键开始</p>
    </div>","","","","","","","","","","","","","","","","","","","","","","","","","","","","","","","","","","","","","","","","","","","","","","","","",""
"","","","","","html-keyboard-response","6","57104","0.0-5.0-1.0-1.0-0.0","2502","instruction_taskSeparate"," ","
    <div style=""text-align: left; color: white; padding: 10px""> 
      <p>现在是整体颜色判断</p>
      <p>您需要<span style=""font-weight: bold"">忽略点的运动方向</span>并判断整体颜色:</p >
        <ul>
            <li>整体为 <span style=""color: hsl(0, 50%, 50%)"">红色</span>，请按键盘 <span style=""color: hsl(0, 50%, 50%)"">""D"" 键</span></li>
            <li>整体为 <span style=""color: hsl(225, 50%, 50%)"">蓝色</span>，请按键盘 <span style=""color: hsl(225, 50%, 50%)"">""k"" 键</span> </li>
          </ul>
      <p>准备好后请按空格键开始</p>
    </div>","","","","","","","","","","","","","","","","","","","","","","","","","","","","","","","","","","","","","","","","","","","","","","","","",""
"","","","","","html-keyboard-response","7","58075","0.0-5.0-1.0-1.0-1.0-0.0-0.0-0.0-0.0","null","fixation","null","<p style='font-size: 48px; color: white'>+</p >","","","","","","","","","","","","","","","","","","","","","","","","","","","","","","","","","","","","","","","","","","","","","","","","",""
"","","","","","rdk","8","59615","0.0-5.0-1.0-1.0-1.0-0.0-0.0-0.0-1.0","1083","color_test","d","","false","[""d"",""k""]","k","-1","true","1","100","0","0","0","3","1","-1","2","300","300","[""hsl(0, 50%, 50%)"",""hsl(225, 50%, 50%)""]","[""hsl(225, 50%, 50%)"",""hsl(0, 50%, 50%)""]","0","0.55","0","circle","black","3","2","2","16.476923076923075","[2,12,17,17,17,18,16,16,17,17,16,16,17,17,17,17,17,17,18,17,16,17,16,17,16,17,17,16,17,17,16,17,15,17,17,17,16,18,17,17,16,16,16,18,17,18,16,18,17,16,18,16,17,18,16,17,17,17,17,17,17,15,17,18,15]","65","956","482","false","20","20","black","1","false","1","1","1920","964","k","staircase_color","","","","","",""
"","","","","","html-keyboard-response","9","60575","0.0-5.0-1.0-1.0-1.0-0.0-0.0-0.0-2.0","null","","null","<p style='font-size: 60px; color: red'>错误!</p>","","","","","","","","","","","","","","","","","","","","","","","","","","","","","","","","","","","","","","","","","","","","","","","","",""
"","","","","","html-keyboard-response","10","61542","0.0-5.0-1.0-1.0-1.0-0.0-0.0-0.0-0.1","null","fixation","null","<p style='font-size: 48px; color: white'>+</p >","","","","","","","","","","","","","","","","","","","","","","","","","","","","","","","","","","","","","","","","","","","","","","","","",""
"","","","","","rdk","11","63153","0.0-5.0-1.0-1.0-1.0-0.0-0.0-0.0-1.1","1155","color_test","d","","true","[""d"",""k""]","d","-1","true","1","100","0","0","0","3","1","-1","2","300","300","[""hsl(0, 50%, 50%)"",""hsl(225, 50%, 50%)""]","[""hsl(0, 50%, 50%)"",""hsl(225, 50%, 50%)""]","0","0.55","0","circle","black","3","2","2","16.485714285714284","[2,16,17,17,18,16,17,17,16,17,16,17,17,15,18,16,16,16,17,17,17,16,17,16,17,16,17,17,17,17,17,16,18,16,16,18,16,17,17,16,16,17,18,17,16,17,17,16,17,18,16,17,16,16,17,17,16,17,16,18,16,16,18,17,16,17,17,18,16,16]","70","956","482","false","20","20","black","1","false","1","1","1920","964","d","staircase_color","","","","","",""
"","","","","","html-keyboard-response","12","64129","0.0-5.0-1.0-1.0-1.0-0.0-0.0-0.0-2.1","null","","null","<p style='font-size: 60px; color: green'>正确!</p>","","","","","","","","","","","","","","","","","","","","","","","","","","","","","","","","","","","","","","","","","","","","","","","","",""
"","","","","","html-keyboard-response","13","65095","0.0-5.0-1.0-1.0-1.0-0.0-0.0-0.0-0.2","null","fixation","null","<p style='font-size: 48px; color: white'>+</p >","","","","","","","","","","","","","","","","","","","","","","","","","","","","","","","","","","","","","","","","","","","","","","","","",""
"","","","","","rdk","14","66272","0.0-5.0-1.0-1.0-1.0-0.0-0.0-0.0-1.2","721","color_test","k","","true","[""d"",""k""]","k","-1","true","1","100","0","0","0","3","1","-1","2","300","300","[""hsl(0, 50%, 50%)"",""hsl(225, 50%, 50%)""]","[""hsl(225, 50%, 50%)"",""hsl(0, 50%, 50%)""]","0","0.55","0","circle","black","3","2","2","16.837209302325583","[15,17,17,16,17,16,17,17,17,18,16,17,17,17,17,17,17,17,17,17,17,17,17,16,17,17,16,18,16,17,17,17,17,16,17,17,17,17,17,18,16,17,17]","43","956","482","false","20","20","black","1","false","1","1","1920","964","k","staircase_color","","","","","",""
"","","","","","html-keyboard-response","15","67243","0.0-5.0-1.0-1.0-1.0-0.0-0.0-0.0-2.2","null","","null","<p style='font-size: 60px; color: green'>正确!</p>","","","","","","","","","","","","","","","","","","","","","","","","","","","","","","","","","","","","","","","","","","","","","","","","",""
"","","","","","html-keyboard-response","16","68210","0.0-5.0-1.0-1.0-1.0-0.0-0.0-0.0-0.3","null","fixation","null","<p style='font-size: 48px; color: white'>+</p >","","","","","","","","","","","","","","","","","","","","","","","","","","","","","","","","","","","","","","","","","","","","","","","","",""
"","","","","","rdk","17","69376","0.0-5.0-1.0-1.0-1.0-0.0-0.0-0.0-1.3","709","color_test","d","","true","[""d"",""k""]","d","-1","true","1","100","0","0","0","3","1","-1","2","300","300","[""hsl(0, 50%, 50%)"",""hsl(225, 50%, 50%)""]","[""hsl(0, 50%, 50%)"",""hsl(225, 50%, 50%)""]","0","0.55","0","circle","black","3","2","2","16.738095238095237","[15,16,17,17,17,17,17,16,17,17,17,17,17,16,17,17,17,17,17,17,17,17,16,17,16,16,17,17,16,17,17,17,18,16,17,17,17,16,17,17,17,16]","42","956","482","false","20","20","black","1","false","1","1","1920","964","d","staircase_color","","","","","",""
"","","","","","html-keyboard-response","18","70341","0.0-5.0-1.0-1.0-1.0-0.0-0.0-0.0-2.3","null","","null","<p style='font-size: 60px; color: green'>正确!</p>","","","","","","","","","","","","","","","","","","","","","","","","","","","","","","","","","","","","","","","","","","","","","","","","",""
"","","","","","html-keyboard-response","19","71307","0.0-5.0-1.0-1.0-1.0-0.0-0.0-0.0-0.4","null","fixation","null","<p style='font-size: 48px; color: white'>+</p >","","","","","","","","","","","","","","","","","","","","","","","","","","","","","","","","","","","","","","","","","","","","","","","","",""
"","","","","","rdk","20","72416","0.0-5.0-1.0-1.0-1.0-0.0-0.0-0.0-1.4","648","color_test","k","","true","[""d"",""k""]","k","-1","true","1","100","0","0","0","3","1","-1","2","300","300","[""hsl(0, 50%, 50%)"",""hsl(225, 50%, 50%)""]","[""hsl(225, 50%, 50%)"",""hsl(0, 50%, 50%)""]","0","0.55","0","circle","black","3","2","2","16.789473684210527","[16,16,16,17,16,17,18,16,17,17,16,17,17,17,17,17,17,17,18,16,17,17,17,17,17,17,17,17,16,17,17,16,17,17,16,17,17,17]","38","956","482","false","20","20","black","1","false","1","1","1920","964","k","staircase_color","","","","","",""
"","","","","","html-keyboard-response","21","73395","0.0-5.0-1.0-1.0-1.0-0.0-0.0-0.0-2.4","null","","null","<p style='font-size: 60px; color: green'>正确!</p>","","","","","","","","","","","","","","","","","","","","","","","","","","","","","","","","","","","","","","","","","","","","","","","","",""
"","","","","","html-keyboard-response","22","74358","0.0-5.0-1.0-1.0-1.0-0.0-0.0-0.0-0.5","null","fixation","null","<p style='font-size: 48px; color: white'>+</p >","","","","","","","","","","","","","","","","","","","","","","","","","","","","","","","","","","","","","","","","","","","","","","","","",""
"","","","","","rdk","23","75792","0.0-5.0-1.0-1.0-1.0-0.0-0.0-0.0-1.5","975","color_test","d","","true","[""d"",""k""]","d","-1","true","1","100","0","0","0","3","1","-1","2","300","300","[""hsl(0, 50%, 50%)"",""hsl(225, 50%, 50%)""]","[""hsl(0, 50%, 50%)"",""hsl(225, 50%, 50%)""]","0","0.55","0","circle","black","3","2","2","16.844827586206897","[15,17,17,17,17,16,17,17,18,16,17,17,17,17,17,17,17,17,17,18,16,17,17,17,17,16,17,17,16,16,18,17,17,17,17,16,17,17,17,17,16,17,17,17,17,17,17,17,16,16,17,17,17,17,17,17,17,17]","58","956","482","false","20","20","black","1","false","1","1","1920","964","d","staircase_color","","","","","",""
"","","","","","html-keyboard-response","24","76758","0.0-5.0-1.0-1.0-1.0-0.0-0.0-0.0-2.5","null","","null","<p style='font-size: 60px; color: green'>正确!</p>","","","","","","","","","","","","","","","","","","","","","","","","","","","","","","","","","","","","","","","","","","","","","","","","",""
"","","","","","html-keyboard-response","25","77724","0.0-5.0-1.0-1.0-1.0-0.0-0.0-0.0-0.6","null","fixation","null","<p style='font-size: 48px; color: white'>+</p >","","","","","","","","","","","","","","","","","","","","","","","","","","","","","","","","","","","","","","","","","","","","","","","","",""
"","","","","","rdk","26","79505","0.0-5.0-1.0-1.0-1.0-0.0-0.0-0.0-1.6","1324","color_test","k","","true","[""d"",""k""]","k","-1","true","1","100","0","0","0","3","1","-1","2","300","300","[""hsl(0, 50%, 50%)"",""hsl(225, 50%, 50%)""]","[""hsl(225, 50%, 50%)"",""hsl(0, 50%, 50%)""]","0","0.55","0","circle","black","3","2","2","16.5625","[3,16,17,16,17,17,17,16,18,16,17,16,16,17,17,16,17,16,17,17,17,17,17,17,17,16,16,17,16,17,17,17,17,16,18,16,18,16,18,16,17,17,15,17,17,18,16,17,17,16,17,17,17,16,17,17,17,16,18,18,16,18,16,17,16,17,16,16,18,16,17,16,17,16,17,18,16,17,16,17]","80","956","482","false","20","20","black","1","false","1","1","1920","964","k","staircase_color","","","","","",""
"","","","","","html-keyboard-response","27","80474","0.0-5.0-1.0-1.0-1.0-0.0-0.0-0.0-2.6","null","","null","<p style='font-size: 60px; color: green'>正确!</p>","","","","","","","","","","","","","","","","","","","","","","","","","","","","","","","","","","","","","","","","","","","","","","","","",""
"","","","","","html-keyboard-response","28","81443","0.0-5.0-1.0-1.0-1.0-0.0-0.0-0.0-0.7","null","fixation","null","<p style='font-size: 48px; color: white'>+</p >","","","","","","","","","","","","","","","","","","","","","","","","","","","","","","","","","","","","","","","","","","","","","","","","",""
"","","","","","rdk","29","82592","0.0-5.0-1.0-1.0-1.0-0.0-0.0-0.0-1.7","691","color_test","d","","true","[""d"",""k""]","d","-1","true","1","100","0","0","0","3","1","-1","2","300","300","[""hsl(0, 50%, 50%)"",""hsl(225, 50%, 50%)""]","[""hsl(0, 50%, 50%)"",""hsl(225, 50%, 50%)""]","0","0.55","0","circle","black","3","2","2","16.853658536585368","[14,17,17,17,16,16,17,17,16,17,17,17,18,16,17,17,17,17,17,17,17,17,17,17,18,16,17,17,17,17,17,17,17,17,18,17,16,17,17,17,17]","41","956","482","false","20","20","black","1","false","1","1","1920","964","d","staircase_color","","","","","",""
"","","","","","html-keyboard-response","30","83560","0.0-5.0-1.0-1.0-1.0-0.0-0.0-0.0-2.7","null","","null","<p style='font-size: 60px; color: green'>正确!</p>","","","","","","","","","","","","","","","","","","","","","","","","","","","","","","","","","","","","","","","","","","","","","","","","",""
"","","","","","html-keyboard-response","31","84523","0.0-5.0-1.0-1.0-1.0-0.0-0.0-0.0-0.8","null","fixation","null","<p style='font-size: 48px; color: white'>+</p >","","","","","","","","","","","","","","","","","","","","","","","","","","","","","","","","","","","","","","","","","","","","","","","","",""
"","","","","","rdk","32","85776","0.0-5.0-1.0-1.0-1.0-0.0-0.0-0.0-1.8","789","color_test","k","","true","[""d"",""k""]","k","-1","true","1","100","0","0","0","3","1","-1","2","300","300","[""hsl(0, 50%, 50%)"",""hsl(225, 50%, 50%)""]","[""hsl(225, 50%, 50%)"",""hsl(0, 50%, 50%)""]","0","0.55","0","circle","black","3","2","2","16.76595744680851","[13,16,17,17,17,16,17,17,17,17,17,17,17,17,18,17,15,17,16,17,17,17,17,17,17,16,17,17,16,17,17,17,17,16,17,17,17,17,17,17,17,17,17,17,17,17,17]","47","956","482","false","20","20","black","1","false","1","1","1920","964","k","staircase_color","","","","","",""
"","","","","","html-keyboard-response","33","86743","0.0-5.0-1.0-1.0-1.0-0.0-0.0-0.0-2.8","null","","null","<p style='font-size: 60px; color: green'>正确!</p>","","","","","","","","","","","","","","","","","","","","","","","","","","","","","","","","","","","","","","","","","","","","","","","","",""
"","","","","","html-keyboard-response","34","87709","0.0-5.0-1.0-1.0-1.0-0.0-0.0-0.0-0.9","null","fixation","null","<p style='font-size: 48px; color: white'>+</p >","","","","","","","","","","","","","","","","","","","","","","","","","","","","","","","","","","","","","","","","","","","","","","","","",""
"","","","","","rdk","35","88770","0.0-5.0-1.0-1.0-1.0-0.0-0.0-0.0-1.9","606","color_test","d","","true","[""d"",""k""]","d","-1","true","1","100","0","0","0","3","1","-1","2","300","300","[""hsl(0, 50%, 50%)"",""hsl(225, 50%, 50%)""]","[""hsl(0, 50%, 50%)"",""hsl(225, 50%, 50%)""]","0","0.55","0","circle","black","3","2","2","16.2972972972973","[3,15,16,17,17,18,16,18,17,16,17,16,17,16,18,16,17,16,17,16,17,16,17,16,17,17,17,16,17,16,17,16,16,17,18,16,18]","37","956","482","false","20","20","black","1","false","1","1","1920","964","d","staircase_color","","","","","",""
"","","","","","html-keyboard-response","36","89742","0.0-5.0-1.0-1.0-1.0-0.0-0.0-0.0-2.9","null","","null","<p style='font-size: 60px; color: green'>正确!</p>","","","","","","","","","","","","","","","","","","","","","","","","","","","","","","","","","","","","","","","","","","","","","","","","",""
"","","","","","html-keyboard-response","37","90706","0.0-5.0-1.0-1.0-1.0-0.0-0.0-0.0-0.10","null","fixation","null","<p style='font-size: 48px; color: white'>+</p >","","","","","","","","","","","","","","","","","","","","","","","","","","","","","","","","","","","","","","","","","","","","","","","","",""
"","","","","","rdk","38","91696","0.0-5.0-1.0-1.0-1.0-0.0-0.0-0.0-1.10","532","color_test","d","","true","[""d"",""k""]","d","-1","true","1","100","0","0","0","3","1","-1","2","300","300","[""hsl(0, 50%, 50%)"",""hsl(225, 50%, 50%)""]","[""hsl(0, 50%, 50%)"",""hsl(225, 50%, 50%)""]","0","0.55","0","circle","black","3","2","2","16.3125","[3,16,17,17,17,17,17,15,17,17,16,17,17,18,16,17,16,17,18,16,17,17,16,17,16,16,17,18,16,17,18,16]","32","956","482","false","20","20","black","1","false","1","1","1920","964","d","staircase_color","","","","","",""
"","","","","","html-keyboard-response","39","92657","0.0-5.0-1.0-1.0-1.0-0.0-0.0-0.0-2.10","null","","null","<p style='font-size: 60px; color: green'>正确!</p>","","","","","","","","","","","","","","","","","","","","","","","","","","","","","","","","","","","","","","","","","","","","","","","","",""
"","","","","","html-keyboard-response","40","93624","0.0-5.0-1.0-1.0-1.0-0.0-0.0-0.0-0.11","null","fixation","null","<p style='font-size: 48px; color: white'>+</p >","","","","","","","","","","","","","","","","","","","","","","","","","","","","","","","","","","","","","","","","","","","","","","","","",""
"","","","","","rdk","41","95008","0.0-5.0-1.0-1.0-1.0-0.0-0.0-0.0-1.11","926","color_test","k","","true","[""d"",""k""]","k","-1","true","1","100","0","0","0","3","1","-1","2","300","300","[""hsl(0, 50%, 50%)"",""hsl(225, 50%, 50%)""]","[""hsl(225, 50%, 50%)"",""hsl(0, 50%, 50%)""]","0","0.55","0","circle","black","3","2","2","16.464285714285715","[5,12,18,15,17,16,17,17,16,17,17,16,17,17,17,17,17,17,17,17,16,17,17,17,16,18,16,16,17,17,16,18,17,16,17,17,16,18,17,16,17,16,17,17,17,16,17,16,16,17,18,16,18,16,18,16]","56","956","482","false","20","20","black","1","false","1","1","1920","964","k","staircase_color","","","","","",""
"","","","","","html-keyboard-response","42","95975","0.0-5.0-1.0-1.0-1.0-0.0-0.0-0.0-2.11","null","","null","<p style='font-size: 60px; color: green'>正确!</p>","","","","","","","","","","","","","","","","","","","","","","","","","","","","","","","","","","","","","","","","","","","","","","","","",""
"","","","","","html-keyboard-response","43","98438","0.0-5.0-1.0-1.0-1.0-0.0-0.0-1.0","null","","null","<p style='font-size: 35px; color: white'>您的正确率为： 92% 。平均反应时为：847毫秒。</p>","","","","","","","","","","","","","","","","","","","","","","","","","","","","","","","","","","","","","","","","","","","","","","","","",""
"","","","","","html-keyboard-response","44","99400","0.0-5.0-1.0-1.0-1.0-1.0-0.0-0.0-0.0","null","fixation","null","<p style='font-size: 48px; color: white'>+</p >","","","","","","","","","","","","","","","","","","","","","","","","","","","","","","","","","","","","","","","","","","","","","","","","",""
"","","","","","rdk","45","100975","0.0-5.0-1.0-1.0-1.0-1.0-0.0-0.0-1.0","1112","color_test","k","","false","[""d"",""k""]","d","-1","true","1","100","0","0","0","3","1","-1","2","300","300","[""hsl(0, 50%, 50%)"",""hsl(225, 50%, 50%)""]","[""hsl(0, 50%, 50%)"",""hsl(225, 50%, 50%)""]","0","0.53","0","circle","black","3","2","2","16.52238805970149","[5,15,18,16,17,16,17,16,17,16,18,16,16,18,16,17,16,16,17,17,18,17,16,17,16,17,17,16,17,16,17,17,17,17,18,15,17,17,17,17,18,16,17,16,18,16,17,16,17,17,17,16,17,17,16,17,18,16,18,16,17,16,17,17,16,17,15]","67","956","482","false","20","20","black","1","false","1","1","1920","964","d","staircase_color","","","","","",""
"","","","","","html-keyboard-response","46","101942","0.0-5.0-1.0-1.0-1.0-1.0-0.0-0.0-2.0","null","","null","<p style='font-size: 60px; color: red'>错误!</p>","","","","","","","","","","","","","","","","","","","","","","","","","","","","","","","","","","","","","","","","","","","","","","","","",""
"","","","","","html-keyboard-response","47","102909","0.0-5.0-1.0-1.0-1.0-1.0-0.0-0.0-0.1","null","fixation","null","<p style='font-size: 48px; color: white'>+</p >","","","","","","","","","","","","","","","","","","","","","","","","","","","","","","","","","","","","","","","","","","","","","","","","",""
"","","","","","rdk","48","104256","0.0-5.0-1.0-1.0-1.0-1.0-0.0-0.0-1.1","892","color_test","k","","true","[""d"",""k""]","k","-1","true","1","100","0","0","0","3","1","-1","2","300","300","[""hsl(0, 50%, 50%)"",""hsl(225, 50%, 50%)""]","[""hsl(225, 50%, 50%)"",""hsl(0, 50%, 50%)""]","0","0.53","0","circle","black","3","2","2","16.51851851851852","[3,16,17,16,17,18,16,17,17,17,17,16,18,17,17,17,16,17,16,18,15,17,16,18,16,18,16,18,16,17,16,17,17,17,17,16,17,16,16,16,18,17,16,18,16,17,16,16,18,18,16,17,16,18]","54","956","482","false","20","20","black","1","false","1","1","1920","964","k","staircase_color","","","","","",""
"","","","","","html-keyboard-response","49","105225","0.0-5.0-1.0-1.0-1.0-1.0-0.0-0.0-2.1","null","","null","<p style='font-size: 60px; color: green'>正确!</p>","","","","","","","","","","","","","","","","","","","","","","","","","","","","","","","","","","","","","","","","","","","","","","","","",""
"","","","","","html-keyboard-response","50","106191","0.0-5.0-1.0-1.0-1.0-1.0-0.0-0.0-0.2","null","fixation","null","<p style='font-size: 48px; color: white'>+</p >","","","","","","","","","","","","","","","","","","","","","","","","","","","","","","","","","","","","","","","","","","","","","","","","",""
"","","","","","rdk","51","107424","0.0-5.0-1.0-1.0-1.0-1.0-0.0-0.0-1.2","777","color_test","d","","true","[""d"",""k""]","d","-1","true","1","100","0","0","0","3","1","-1","2","300","300","[""hsl(0, 50%, 50%)"",""hsl(225, 50%, 50%)""]","[""hsl(0, 50%, 50%)"",""hsl(225, 50%, 50%)""]","0","0.53","0","circle","black","3","2","2","16.46808510638298","[3,16,17,17,17,16,17,17,17,16,17,17,17,16,17,18,17,16,18,16,17,17,16,17,15,17,18,16,17,18,16,17,16,17,17,16,17,18,16,17,16,18,16,17,16,18,16]","47","956","482","false","20","20","black","1","false","1","1","1920","964","d","staircase_color","","","","","",""
"","","","","","html-keyboard-response","52","108392","0.0-5.0-1.0-1.0-1.0-1.0-0.0-0.0-2.2","null","","null","<p style='font-size: 60px; color: green'>正确!</p>","","","","","","","","","","","","","","","","","","","","","","","","","","","","","","","","","","","","","","","","","","","","","","","","",""
"","","","","","html-keyboard-response","53","109362","0.0-5.0-1.0-1.0-1.0-1.0-0.0-0.0-0.3","null","fixation","null","<p style='font-size: 48px; color: white'>+</p >","","","","","","","","","","","","","","","","","","","","","","","","","","","","","","","","","","","","","","","","","","","","","","","","",""
"","","","","","rdk","54","110464","0.0-5.0-1.0-1.0-1.0-1.0-0.0-0.0-1.3","650","color_test","k","","true","[""d"",""k""]","k","-1","true","1","100","0","0","0","3","1","-1","2","300","300","[""hsl(0, 50%, 50%)"",""hsl(225, 50%, 50%)""]","[""hsl(225, 50%, 50%)"",""hsl(0, 50%, 50%)""]","0","0.53","0","circle","black","3","2","2","16.358974358974358","[6,12,17,17,17,16,17,17,17,17,17,17,16,17,16,17,17,17,16,17,17,17,17,16,17,17,17,16,17,16,17,17,16,18,16,17,16,17,17]","39","956","482","false","20","20","black","1","false","1","1","1920","964","k","staircase_color","","","","","",""
"","","","","","html-keyboard-response","55","111424","0.0-5.0-1.0-1.0-1.0-1.0-0.0-0.0-2.3","null","","null","<p style='font-size: 60px; color: green'>正确!</p>","","","","","","","","","","","","","","","","","","","","","","","","","","","","","","","","","","","","","","","","","","","","","","","","",""
"","","","","","html-keyboard-response","56","112391","0.0-5.0-1.0-1.0-1.0-1.0-0.0-0.0-0.4","null","fixation","null","<p style='font-size: 48px; color: white'>+</p >","","","","","","","","","","","","","","","","","","","","","","","","","","","","","","","","","","","","","","","","","","","","","","","","",""
"","","","","","rdk","57","113727","0.0-5.0-1.0-1.0-1.0-1.0-0.0-0.0-1.4","880","color_test","d","","false","[""d"",""k""]","k","-1","true","1","100","0","0","0","3","1","-1","2","300","300","[""hsl(0, 50%, 50%)"",""hsl(225, 50%, 50%)""]","[""hsl(225, 50%, 50%)"",""hsl(0, 50%, 50%)""]","0","0.53","0","circle","black","3","2","2","16.452830188679247","[3,16,17,16,17,16,17,17,17,17,16,17,17,16,16,17,18,17,16,18,16,16,17,17,17,18,16,17,16,17,16,17,16,17,17,16,17,17,17,18,17,17,16,17,17,17,17,16,17,17,15,17,16]","53","956","482","false","20","20","black","1","false","1","1","1920","964","k","staircase_color","","","","","",""
"","","","","","html-keyboard-response","58","114697","0.0-5.0-1.0-1.0-1.0-1.0-0.0-0.0-2.4","null","","null","<p style='font-size: 60px; color: red'>错误!</p>","","","","","","","","","","","","","","","","","","","","","","","","","","","","","","","","","","","","","","","","","","","","","","","","",""
"","","","","","html-keyboard-response","59","115660","0.0-5.0-1.0-1.0-1.0-1.0-0.0-0.0-0.5","null","fixation","null","<p style='font-size: 48px; color: white'>+</p >","","","","","","","","","","","","","","","","","","","","","","","","","","","","","","","","","","","","","","","","","","","","","","","","",""
"","","","","","rdk","60","117137","0.0-5.0-1.0-1.0-1.0-1.0-0.0-0.0-1.5","1025","color_test","k","","true","[""d"",""k""]","k","-1","true","1","100","0","0","0","3","1","-1","2","300","300","[""hsl(0, 50%, 50%)"",""hsl(225, 50%, 50%)""]","[""hsl(225, 50%, 50%)"",""hsl(0, 50%, 50%)""]","0","0.53","0","circle","black","3","2","2","16.629032258064516","[3,17,17,17,18,16,17,17,17,17,16,17,17,17,17,16,16,17,17,17,17,17,17,16,17,17,17,17,17,16,17,17,17,16,17,18,16,17,17,17,17,17,17,17,17,17,17,16,17,17,17,16,17,16,17,17,17,17,17,17,17,17]","62","956","482","false","20","20","black","1","false","1","1","1920","964","k","staircase_color","","","","","",""
"","","","","","html-keyboard-response","61","118109","0.0-5.0-1.0-1.0-1.0-1.0-0.0-0.0-2.5","null","","null","<p style='font-size: 60px; color: green'>正确!</p>","","","","","","","","","","","","","","","","","","","","","","","","","","","","","","","","","","","","","","","","","","","","","","","","",""
"","","","","","html-keyboard-response","62","119076","0.0-5.0-1.0-1.0-1.0-1.0-0.0-0.0-0.6","null","fixation","null","<p style='font-size: 48px; color: white'>+</p >","","","","","","","","","","","","","","","","","","","","","","","","","","","","","","","","","","","","","","","","","","","","","","","","",""
"","","","","","rdk","63","120576","0.0-5.0-1.0-1.0-1.0-1.0-0.0-0.0-1.6","1045","color_test","d","","true","[""d"",""k""]","d","-1","true","1","100","0","0","0","3","1","-1","2","300","300","[""hsl(0, 50%, 50%)"",""hsl(225, 50%, 50%)""]","[""hsl(0, 50%, 50%)"",""hsl(225, 50%, 50%)""]","0","0.53","0","circle","black","3","2","2","16.46031746031746","[3,15,17,17,16,17,16,16,17,16,17,17,17,17,17,17,17,16,18,16,18,16,17,16,17,18,16,17,17,17,16,17,16,17,16,17,17,16,17,17,16,17,17,17,17,16,17,16,17,17,16,17,17,16,17,17,17,16,17,17,16,16,17]","63","956","482","false","20","20","black","1","false","1","1","1920","964","d","staircase_color","","","","","",""
"","","","","","html-keyboard-response","64","121540","0.0-5.0-1.0-1.0-1.0-1.0-0.0-0.0-2.6","null","","null","<p style='font-size: 60px; color: green'>正确!</p>","","","","","","","","","","","","","","","","","","","","","","","","","","","","","","","","","","","","","","","","","","","","","","","","",""
"","","","","","html-keyboard-response","65","122507","0.0-5.0-1.0-1.0-1.0-1.0-0.0-0.0-0.7","null","fixation","null","<p style='font-size: 48px; color: white'>+</p >","","","","","","","","","","","","","","","","","","","","","","","","","","","","","","","","","","","","","","","","","","","","","","","","",""
"","","","","","rdk","66","123712","0.0-5.0-1.0-1.0-1.0-1.0-0.0-0.0-1.7","747","color_test","k","","false","[""d"",""k""]","d","-1","true","1","100","0","0","0","3","1","-1","2","300","300","[""hsl(0, 50%, 50%)"",""hsl(225, 50%, 50%)""]","[""hsl(0, 50%, 50%)"",""hsl(225, 50%, 50%)""]","0","0.53","0","circle","black","3","2","2","16.333333333333332","[5,11,16,17,17,17,17,17,16,17,17,18,16,16,17,16,17,17,16,16,17,17,17,16,16,17,18,16,18,16,16,17,17,15,18,17,16,16,17,18,16,17,18,16,17]","45","956","482","false","20","20","black","1","false","1","1","1920","964","d","staircase_color","","","","","",""
"","","","","","html-keyboard-response","67","124676","0.0-5.0-1.0-1.0-1.0-1.0-0.0-0.0-2.7","null","","null","<p style='font-size: 60px; color: red'>错误!</p>","","","","","","","","","","","","","","","","","","","","","","","","","","","","","","","","","","","","","","","","","","","","","","","","",""
"","","","","","html-keyboard-response","68","125644","0.0-5.0-1.0-1.0-1.0-1.0-0.0-0.0-0.8","null","fixation","null","<p style='font-size: 48px; color: white'>+</p >","","","","","","","","","","","","","","","","","","","","","","","","","","","","","","","","","","","","","","","","","","","","","","","","",""
"","","","","","rdk","69","127071","0.0-5.0-1.0-1.0-1.0-1.0-0.0-0.0-1.8","974","color_test","d","","true","[""d"",""k""]","d","-1","true","1","100","0","0","0","3","1","-1","2","300","300","[""hsl(0, 50%, 50%)"",""hsl(225, 50%, 50%)""]","[""hsl(0, 50%, 50%)"",""hsl(225, 50%, 50%)""]","0","0.53","0","circle","black","3","2","2","16.627118644067796","[2,17,17,16,17,17,17,17,17,17,16,17,17,17,17,17,17,17,17,17,17,16,17,17,17,17,17,17,17,17,17,17,17,16,17,17,17,17,17,17,17,17,17,17,17,17,17,17,16,17,17,18,16,17,18,15,16,17,17]","59","956","482","false","20","20","black","1","false","1","1","1920","964","d","staircase_color","","","","","",""
"","","","","","html-keyboard-response","70","128037","0.0-5.0-1.0-1.0-1.0-1.0-0.0-0.0-2.8","null","","null","<p style='font-size: 60px; color: green'>正确!</p>","","","","","","","","","","","","","","","","","","","","","","","","","","","","","","","","","","","","","","","","","","","","","","","","",""
"","","","","","html-keyboard-response","71","129003","0.0-5.0-1.0-1.0-1.0-1.0-0.0-0.0-0.9","null","fixation","null","<p style='font-size: 48px; color: white'>+</p >","","","","","","","","","","","","","","","","","","","","","","","","","","","","","","","","","","","","","","","","","","","","","","","","",""
"","","","","","rdk","72","130320","0.0-5.0-1.0-1.0-1.0-1.0-0.0-0.0-1.9","855","color_test","d","","true","[""d"",""k""]","d","-1","true","1","100","0","0","0","3","1","-1","2","300","300","[""hsl(0, 50%, 50%)"",""hsl(225, 50%, 50%)""]","[""hsl(0, 50%, 50%)"",""hsl(225, 50%, 50%)""]","0","0.53","0","circle","black","3","2","2","16.346153846153847","[1,15,17,18,16,16,17,17,16,18,16,15,16,17,17,17,18,17,16,16,17,17,17,17,17,17,16,16,17,17,18,15,18,16,18,16,15,17,17,16,17,16,18,17,17,17,16,17,15,18,15,17]","52","956","482","false","20","20","black","1","false","1","1","1920","964","d","staircase_color","","","","","",""
"","","","","","html-keyboard-response","73","131275","0.0-5.0-1.0-1.0-1.0-1.0-0.0-0.0-2.9","null","","null","<p style='font-size: 60px; color: green'>正确!</p>","","","","","","","","","","","","","","","","","","","","","","","","","","","","","","","","","","","","","","","","","","","","","","","","",""
"","","","","","html-keyboard-response","74","132232","0.0-5.0-1.0-1.0-1.0-1.0-0.0-0.0-0.10","null","fixation","null","<p style='font-size: 48px; color: white'>+</p >","","","","","","","","","","","","","","","","","","","","","","","","","","","","","","","","","","","","","","","","","","","","","","","","",""
"","","","","","rdk","75","133679","0.0-5.0-1.0-1.0-1.0-1.0-0.0-0.0-1.10","998","color_test","d","","false","[""d"",""k""]","k","-1","true","1","100","0","0","0","3","1","-1","2","300","300","[""hsl(0, 50%, 50%)"",""hsl(225, 50%, 50%)""]","[""hsl(225, 50%, 50%)"",""hsl(0, 50%, 50%)""]","0","0.53","0","circle","black","3","2","2","16.466666666666665","[1,16,17,17,18,18,16,16,16,17,17,17,17,17,16,18,17,17,18,16,16,18,16,16,17,16,17,16,18,17,16,17,16,17,16,17,17,16,17,17,16,17,16,18,16,17,17,17,16,17,16,17,16,18,16,16,17,17,17,16]","60","956","482","false","20","20","black","1","false","1","1","1920","964","k","staircase_color","","","","","",""
"","","","","","html-keyboard-response","76","134644","0.0-5.0-1.0-1.0-1.0-1.0-0.0-0.0-2.10","null","","null","<p style='font-size: 60px; color: red'>错误!</p>","","","","","","","","","","","","","","","","","","","","","","","","","","","","","","","","","","","","","","","","","","","","","","","","",""
"","","","","","html-keyboard-response","77","135608","0.0-5.0-1.0-1.0-1.0-1.0-0.0-0.0-0.11","null","fixation","null","<p style='font-size: 48px; color: white'>+</p >","","","","","","","","","","","","","","","","","","","","","","","","","","","","","","","","","","","","","","","","","","","","","","","","",""
"","","","","","rdk","78","136944","0.0-5.0-1.0-1.0-1.0-1.0-0.0-0.0-1.11","881","color_test","d","","false","[""d"",""k""]","k","-1","true","1","100","0","0","0","3","1","-1","2","300","300","[""hsl(0, 50%, 50%)"",""hsl(225, 50%, 50%)""]","[""hsl(225, 50%, 50%)"",""hsl(0, 50%, 50%)""]","0","0.53","0","circle","black","3","2","2","16.50943396226415","[6,13,17,17,17,18,16,17,16,17,18,16,16,17,17,18,16,16,17,16,17,16,17,17,17,16,18,17,16,16,18,16,18,16,17,18,16,17,17,16,17,17,16,17,16,16,17,17,18,17,16,18,16]","53","956","482","false","20","20","black","1","false","1","1","1920","964","k","staircase_color","","","","","",""
"","","","","","html-keyboard-response","79","137909","0.0-5.0-1.0-1.0-1.0-1.0-0.0-0.0-2.11","null","","null","<p style='font-size: 60px; color: red'>错误!</p>","","","","","","","","","","","","","","","","","","","","","","","","","","","","","","","","","","","","","","","","","","","","","","","","",""
"","","","","","html-keyboard-response","80","140375","0.0-5.0-1.0-1.0-1.0-1.0-0.0-1.0","null","","null","<p style='font-size: 35px; color: white'>您的正确率为： 58% 。平均反应时为：903毫秒。</p>","","","","","","","","","","","","","","","","","","","","","","","","","","","","","","","","","","","","","","","","","","","","","","","","",""
"","","","","","html-keyboard-response","81","141341","0.0-5.0-1.0-1.0-1.0-2.0-0.0-0.0-0.0","null","fixation","null","<p style='font-size: 48px; color: white'>+</p >","","","","","","","","","","","","","","","","","","","","","","","","","","","","","","","","","","","","","","","","","","","","","","","","",""
"","","","","","rdk","82","142687","0.0-5.0-1.0-1.0-1.0-2.0-0.0-0.0-1.0","891","color_test","d","","true","[""d"",""k""]","d","-1","true","1","100","0","0","0","3","1","-1","2","300","300","[""hsl(0, 50%, 50%)"",""hsl(225, 50%, 50%)""]","[""hsl(0, 50%, 50%)"",""hsl(225, 50%, 50%)""]","0","0.53","0","circle","black","3","2","2","16.537037037037038","[3,16,17,17,18,16,17,17,17,17,17,17,17,16,17,17,17,17,17,16,17,17,17,17,17,17,17,17,16,17,17,17,17,16,17,17,17,17,17,16,17,16,17,17,17,17,17,16,17,17,16,16,16,17]","54","956","482","false","20","20","black","1","false","1","1","1920","964","d","staircase_color","","","","","",""
"","","","","","html-keyboard-response","83","143659","0.0-5.0-1.0-1.0-1.0-2.0-0.0-0.0-2.0","null","","null","<p style='font-size: 60px; color: green'>正确!</p>","","","","","","","","","","","","","","","","","","","","","","","","","","","","","","","","","","","","","","","","","","","","","","","","",""
"","","","","","html-keyboard-response","84","144624","0.0-5.0-1.0-1.0-1.0-2.0-0.0-0.0-0.1","null","fixation","null","<p style='font-size: 48px; color: white'>+</p >","","","","","","","","","","","","","","","","","","","","","","","","","","","","","","","","","","","","","","","","","","","","","","","","",""
"","","","","","rdk","85","145664","0.0-5.0-1.0-1.0-1.0-2.0-0.0-0.0-1.1","582","color_test","d","","true","[""d"",""k""]","d","-1","true","1","100","0","0","0","3","1","-1","2","300","300","[""hsl(0, 50%, 50%)"",""hsl(225, 50%, 50%)""]","[""hsl(0, 50%, 50%)"",""hsl(225, 50%, 50%)""]","0","0.53","0","circle","black","3","2","2","16.17142857142857","[1,15,17,17,18,16,16,17,17,17,16,17,17,16,17,18,17,17,16,17,16,17,16,16,17,17,16,17,17,16,16,17,17,16,16]","35","956","482","false","20","20","black","1","false","1","1","1920","964","d","staircase_color","","","","","",""
"","","","","","html-keyboard-response","86","146624","0.0-5.0-1.0-1.0-1.0-2.0-0.0-0.0-2.1","null","","null","<p style='font-size: 60px; color: green'>正确!</p>","","","","","","","","","","","","","","","","","","","","","","","","","","","","","","","","","","","","","","","","","","","","","","","","",""
"","","","","","html-keyboard-response","87","147591","0.0-5.0-1.0-1.0-1.0-2.0-0.0-0.0-0.2","null","fixation","null","<p style='font-size: 48px; color: white'>+</p >","","","","","","","","","","","","","","","","","","","","","","","","","","","","","","","","","","","","","","","","","","","","","","","","",""
"","","","","","rdk","88","148832","0.0-5.0-1.0-1.0-1.0-2.0-0.0-0.0-1.2","785","color_test","k","","true","[""d"",""k""]","k","-1","true","1","100","0","0","0","3","1","-1","2","300","300","[""hsl(0, 50%, 50%)"",""hsl(225, 50%, 50%)""]","[""hsl(225, 50%, 50%)"",""hsl(0, 50%, 50%)""]","0","0.53","0","circle","black","3","2","2","16.382978723404257","[3,15,16,17,18,16,18,16,18,16,16,17,17,16,17,17,17,16,17,17,17,17,16,18,17,16,17,17,16,17,17,16,17,16,17,16,17,16,17,17,16,17,17,16,17,16,17]","47","956","482","false","20","20","black","1","false","1","1","1920","964","k","staircase_color","","","","","",""
"","","","","","html-keyboard-response","89","149795","0.0-5.0-1.0-1.0-1.0-2.0-0.0-0.0-2.2","null","","null","<p style='font-size: 60px; color: green'>正确!</p>","","","","","","","","","","","","","","","","","","","","","","","","","","","","","","","","","","","","","","","","","","","","","","","","",""
"","","","","","html-keyboard-response","90","150758","0.0-5.0-1.0-1.0-1.0-2.0-0.0-0.0-0.3","null","fixation","null","<p style='font-size: 48px; color: white'>+</p >","","","","","","","","","","","","","","","","","","","","","","","","","","","","","","","","","","","","","","","","","","","","","","","","",""
"","","","","","rdk","91","151919","0.0-5.0-1.0-1.0-1.0-2.0-0.0-0.0-1.3","705","color_test","d","","false","[""d"",""k""]","k","-1","true","1","100","0","0","0","3","1","-1","2","300","300","[""hsl(0, 50%, 50%)"",""hsl(225, 50%, 50%)""]","[""hsl(225, 50%, 50%)"",""hsl(0, 50%, 50%)""]","0","0.53","0","circle","black","3","2","2","16.41860465116279","[6,12,16,17,18,17,16,17,17,16,17,16,17,17,16,18,16,17,17,16,18,16,18,16,17,17,17,16,16,18,17,17,16,17,17,17,17,18,16,17,16,18,15]","43","956","482","false","20","20","black","1","false","1","1","1920","964","k","staircase_color","","","","","",""
"","","","","","html-keyboard-response","92","152894","0.0-5.0-1.0-1.0-1.0-2.0-0.0-0.0-2.3","null","","null","<p style='font-size: 60px; color: red'>错误!</p>","","","","","","","","","","","","","","","","","","","","","","","","","","","","","","","","","","","","","","","","","","","","","","","","",""
"","","","","","html-keyboard-response","93","153861","0.0-5.0-1.0-1.0-1.0-2.0-0.0-0.0-0.4","null","fixation","null","<p style='font-size: 48px; color: white'>+</p >","","","","","","","","","","","","","","","","","","","","","","","","","","","","","","","","","","","","","","","","","","","","","","","","",""
"","","","","","rdk","94","155120","0.0-5.0-1.0-1.0-1.0-2.0-0.0-0.0-1.4","806","color_test","k","","true","[""d"",""k""]","k","-1","true","1","100","0","0","0","3","1","-1","2","300","300","[""hsl(0, 50%, 50%)"",""hsl(225, 50%, 50%)""]","[""hsl(225, 50%, 50%)"",""hsl(0, 50%, 50%)""]","0","0.53","0","circle","black","3","2","2","16.510204081632654","[2,16,17,17,18,16,17,18,17,16,17,16,17,17,16,17,17,16,17,17,17,16,18,16,17,17,17,18,17,16,17,17,16,17,17,16,16,18,15,18,16,17,16,18,16,17,17,16,19]","49","956","482","false","20","20","black","1","false","1","1","1920","964","k","staircase_color","","","","","",""
"","","","","","html-keyboard-response","95","156075","0.0-5.0-1.0-1.0-1.0-2.0-0.0-0.0-2.4","null","","null","<p style='font-size: 60px; color: green'>正确!</p>","","","","","","","","","","","","","","","","","","","","","","","","","","","","","","","","","","","","","","","","","","","","","","","","",""
"","","","","","html-keyboard-response","96","157043","0.0-5.0-1.0-1.0-1.0-2.0-0.0-0.0-0.5","null","fixation","null","<p style='font-size: 48px; color: white'>+</p >","","","","","","","","","","","","","","","","","","","","","","","","","","","","","","","","","","","","","","","","","","","","","","","","",""
"","","","","","rdk","97","158256","0.0-5.0-1.0-1.0-1.0-2.0-0.0-0.0-1.5","758","color_test","d","","true","[""d"",""k""]","d","-1","true","1","100","0","0","0","3","1","-1","2","300","300","[""hsl(0, 50%, 50%)"",""hsl(225, 50%, 50%)""]","[""hsl(0, 50%, 50%)"",""hsl(225, 50%, 50%)""]","0","0.53","0","circle","black","3","2","2","16.369565217391305","[1,16,17,17,17,17,16,16,17,16,17,17,17,17,18,17,15,18,15,18,15,17,17,17,17,17,17,17,16,17,16,17,17,15,18,16,17,16,18,16,16,17,16,18,16,18]","46","956","482","false","20","20","black","1","false","1","1","1920","964","d","staircase_color","","","","","",""
"","","","","","html-keyboard-response","98","159228","0.0-5.0-1.0-1.0-1.0-2.0-0.0-0.0-2.5","null","","null","<p style='font-size: 60px; color: green'>正确!</p>","","","","","","","","","","","","","","","","","","","","","","","","","","","","","","","","","","","","","","","","","","","","","","","","",""
"","","","","","html-keyboard-response","99","160193","0.0-5.0-1.0-1.0-1.0-2.0-0.0-0.0-0.6","null","fixation","null","<p style='font-size: 48px; color: white'>+</p >","","","","","","","","","","","","","","","","","","","","","","","","","","","","","","","","","","","","","","","","","","","","","","","","",""
"","","","","","rdk","100","161569","0.0-5.0-1.0-1.0-1.0-2.0-0.0-0.0-1.6","921","color_test","k","","true","[""d"",""k""]","k","-1","true","1","100","0","0","0","3","1","-1","2","300","300","[""hsl(0, 50%, 50%)"",""hsl(225, 50%, 50%)""]","[""hsl(225, 50%, 50%)"",""hsl(0, 50%, 50%)""]","0","0.53","0","circle","black","3","2","2","16.5","[3,16,17,17,16,16,17,17,17,17,16,18,16,18,16,17,16,17,17,16,16,17,16,16,17,18,16,17,17,17,17,16,18,16,18,16,17,16,18,17,16,18,16,17,16,17,16,18,16,18,16,18,16,17,17,16]","56","956","482","false","20","20","black","1","false","1","1","1920","964","k","staircase_color","","","","","",""
"","","","","","html-keyboard-response","101","162542","0.0-5.0-1.0-1.0-1.0-2.0-0.0-0.0-2.6","null","","null","<p style='font-size: 60px; color: green'>正确!</p>","","","","","","","","","","","","","","","","","","","","","","","","","","","","","","","","","","","","","","","","","","","","","","","","",""
"","","","","","html-keyboard-response","102","163508","0.0-5.0-1.0-1.0-1.0-2.0-0.0-0.0-0.7","null","fixation","null","<p style='font-size: 48px; color: white'>+</p >","","","","","","","","","","","","","","","","","","","","","","","","","","","","","","","","","","","","","","","","","","","","","","","","",""
"","","","","","rdk","103","164688","0.0-5.0-1.0-1.0-1.0-2.0-0.0-0.0-1.7","719","color_test","d","","true","[""d"",""k""]","d","-1","true","1","100","0","0","0","3","1","-1","2","300","300","[""hsl(0, 50%, 50%)"",""hsl(225, 50%, 50%)""]","[""hsl(0, 50%, 50%)"",""hsl(225, 50%, 50%)""]","0","0.53","0","circle","black","3","2","2","16.72093023255814","[13,17,16,17,16,17,17,17,17,17,17,17,17,17,17,17,17,16,17,17,17,16,17,16,17,17,17,17,17,16,17,17,17,17,17,17,16,17,17,17,17,16,17]","43","956","482","false","20","20","black","1","false","1","1","1920","964","d","staircase_color","","","","","",""
"","","","","","html-keyboard-response","104","165662","0.0-5.0-1.0-1.0-1.0-2.0-0.0-0.0-2.7","null","","null","<p style='font-size: 60px; color: green'>正确!</p>","","","","","","","","","","","","","","","","","","","","","","","","","","","","","","","","","","","","","","","","","","","","","","","","",""
"","","","","","html-keyboard-response","105","166626","0.0-5.0-1.0-1.0-1.0-2.0-0.0-0.0-0.8","null","fixation","null","<p style='font-size: 48px; color: white'>+</p >","","","","","","","","","","","","","","","","","","","","","","","","","","","","","","","","","","","","","","","","","","","","","","","","",""
"","","","","","rdk","106","167808","0.0-5.0-1.0-1.0-1.0-2.0-0.0-0.0-1.8","727","color_test","k","","true","[""d"",""k""]","k","-1","true","1","100","0","0","0","3","1","-1","2","300","300","[""hsl(0, 50%, 50%)"",""hsl(225, 50%, 50%)""]","[""hsl(225, 50%, 50%)"",""hsl(0, 50%, 50%)""]","0","0.53","0","circle","black","3","2","2","16.40909090909091","[1,16,17,17,17,17,17,17,16,17,17,17,18,16,17,17,16,18,15,17,16,17,18,16,17,16,17,17,16,16,18,16,18,17,16,18,17,17,17,16,17,16,18,15]","44","956","482","false","20","20","black","1","false","1","1","1920","964","k","staircase_color","","","","","",""
"","","","","","html-keyboard-response","107","168776","0.0-5.0-1.0-1.0-1.0-2.0-0.0-0.0-2.8","null","","null","<p style='font-size: 60px; color: green'>正确!</p>","","","","","","","","","","","","","","","","","","","","","","","","","","","","","","","","","","","","","","","","","","","","","","","","",""
"","","","","","html-keyboard-response","108","169744","0.0-5.0-1.0-1.0-1.0-2.0-0.0-0.0-0.9","null","fixation","null","<p style='font-size: 48px; color: white'>+</p >","","","","","","","","","","","","","","","","","","","","","","","","","","","","","","","","","","","","","","","","","","","","","","","","",""
"","","","","","rdk","109","170960","0.0-5.0-1.0-1.0-1.0-2.0-0.0-0.0-1.9","764","color_test","d","","true","[""d"",""k""]","d","-1","true","1","100","0","0","0","3","1","-1","2","300","300","[""hsl(0, 50%, 50%)"",""hsl(225, 50%, 50%)""]","[""hsl(0, 50%, 50%)"",""hsl(225, 50%, 50%)""]","0","0.53","0","circle","black","3","2","2","16.52173913043478","[3,16,16,17,17,17,16,17,17,16,17,17,17,16,16,17,17,17,17,17,17,17,17,17,17,16,17,17,17,17,17,17,17,17,16,17,17,17,17,17,17,17,17,17,17,17]","46","956","482","false","20","20","black","1","false","1","1","1920","964","d","staircase_color","","","","","",""
"","","","","","html-keyboard-response","110","171924","0.0-5.0-1.0-1.0-1.0-2.0-0.0-0.0-2.9","null","","null","<p style='font-size: 60px; color: green'>正确!</p>","","","","","","","","","","","","","","","","","","","","","","","","","","","","","","","","","","","","","","","","","","","","","","","","",""
"","","","","","html-keyboard-response","111","172890","0.0-5.0-1.0-1.0-1.0-2.0-0.0-0.0-0.10","null","fixation","null","<p style='font-size: 48px; color: white'>+</p >","","","","","","","","","","","","","","","","","","","","","","","","","","","","","","","","","","","","","","","","","","","","","","","","",""
"","","","","","rdk","112","173920","0.0-5.0-1.0-1.0-1.0-2.0-0.0-0.0-1.10","573","color_test","d","","true","[""d"",""k""]","d","-1","true","1","100","0","0","0","3","1","-1","2","300","300","[""hsl(0, 50%, 50%)"",""hsl(225, 50%, 50%)""]","[""hsl(0, 50%, 50%)"",""hsl(225, 50%, 50%)""]","0","0.53","0","circle","black","3","2","2","16.457142857142856","[3,16,17,17,16,17,18,16,18,16,17,16,18,16,17,17,17,16,17,17,17,18,16,18,16,18,17,16,16,17,17,17,17,17,17]","35","956","482","false","20","20","black","1","false","1","1","1920","964","d","staircase_color","","","","","",""
"","","","","","html-keyboard-response","113","174895","0.0-5.0-1.0-1.0-1.0-2.0-0.0-0.0-2.10","null","","null","<p style='font-size: 60px; color: green'>正确!</p>","","","","","","","","","","","","","","","","","","","","","","","","","","","","","","","","","","","","","","","","","","","","","","","","",""
"","","","","","html-keyboard-response","114","175859","0.0-5.0-1.0-1.0-1.0-2.0-0.0-0.0-0.11","null","fixation","null","<p style='font-size: 48px; color: white'>+</p >","","","","","","","","","","","","","","","","","","","","","","","","","","","","","","","","","","","","","","","","","","","","","","","","",""
"","","","","","rdk","115","176944","0.0-5.0-1.0-1.0-1.0-2.0-0.0-0.0-1.11","630","color_test","d","","false","[""d"",""k""]","k","-1","true","1","100","0","0","0","3","1","-1","2","300","300","[""hsl(0, 50%, 50%)"",""hsl(225, 50%, 50%)""]","[""hsl(225, 50%, 50%)"",""hsl(0, 50%, 50%)""]","0","0.53","0","circle","black","3","2","2","16.289473684210527","[6,11,17,17,16,17,17,17,18,15,17,16,16,17,17,17,18,16,16,17,16,17,17,18,16,17,17,15,18,16,17,16,17,17,16,18,16,17]","38","956","482","false","20","20","black","1","false","1","1","1920","964","k","staircase_color","","","","","",""
"","","","","","html-keyboard-response","116","177908","0.0-5.0-1.0-1.0-1.0-2.0-0.0-0.0-2.11","null","","null","<p style='font-size: 60px; color: red'>错误!</p>","","","","","","","","","","","","","","","","","","","","","","","","","","","","","","","","","","","","","","","","","","","","","","","","",""
"","","","","","html-keyboard-response","117","180375","0.0-5.0-1.0-1.0-1.0-2.0-0.0-1.0","null","","null","<p style='font-size: 35px; color: white'>您的正确率为： 83% 。平均反应时为：738毫秒。</p>","","","","","","","","","","","","","","","","","","","","","","","","","","","","","","","","","","","","","","","","","","","","","","","","",""
"","","","","","html-keyboard-response","118","181343","0.0-5.0-1.0-1.0-1.0-3.0-0.0-0.0-0.0","null","fixation","null","<p style='font-size: 48px; color: white'>+</p >","","","","","","","","","","","","","","","","","","","","","","","","","","","","","","","","","","","","","","","","","","","","","","","","",""
"","","","","","rdk","119","182386","0.0-5.0-1.0-1.0-1.0-3.0-0.0-0.0-1.0","588","color_test","k","","true","[""d"",""k""]","k","-1","true","1","100","0","0","0","3","1","-1","2","300","300","[""hsl(0, 50%, 50%)"",""hsl(225, 50%, 50%)""]","[""hsl(225, 50%, 50%)"",""hsl(0, 50%, 50%)""]","0","0.55","0","circle","black","3","2","2","16.38888888888889","[3,15,17,18,17,17,17,16,16,18,15,18,16,17,16,17,16,18,16,18,16,18,16,17,18,17,16,18,16,17,16,16,17,17,17,17]","36","956","482","false","20","20","black","1","false","1","1","1920","964","k","staircase_color","","","","","",""
"","","","","","html-keyboard-response","120","183359","0.0-5.0-1.0-1.0-1.0-3.0-0.0-0.0-2.0","null","","null","<p style='font-size: 60px; color: green'>正确!</p>","","","","","","","","","","","","","","","","","","","","","","","","","","","","","","","","","","","","","","","","","","","","","","","","",""
"","","","","","html-keyboard-response","121","184326","0.0-5.0-1.0-1.0-1.0-3.0-0.0-0.0-0.1","null","fixation","null","<p style='font-size: 48px; color: white'>+</p >","","","","","","","","","","","","","","","","","","","","","","","","","","","","","","","","","","","","","","","","","","","","","","","","",""
"","","","","","rdk","122","185359","0.0-5.0-1.0-1.0-1.0-3.0-0.0-0.0-1.1","576","color_test","d","","true","[""d"",""k""]","d","-1","true","1","100","0","0","0","3","1","-1","2","300","300","[""hsl(0, 50%, 50%)"",""hsl(225, 50%, 50%)""]","[""hsl(0, 50%, 50%)"",""hsl(225, 50%, 50%)""]","0","0.55","0","circle","black","3","2","2","16.705882352941178","[17,16,17,17,17,16,17,17,17,16,17,17,17,17,17,16,18,16,17,17,16,18,15,17,17,15,17,17,16,16,17,17,17,17]","34","956","482","false","20","20","black","1","false","1","1","1920","964","d","staircase_color","","","","","",""
"","","","","","html-keyboard-response","123","186325","0.0-5.0-1.0-1.0-1.0-3.0-0.0-0.0-2.1","null","","null","<p style='font-size: 60px; color: green'>正确!</p>","","","","","","","","","","","","","","","","","","","","","","","","","","","","","","","","","","","","","","","","","","","","","","","","",""
"","","","","","html-keyboard-response","124","187295","0.0-5.0-1.0-1.0-1.0-3.0-0.0-0.0-0.2","null","fixation","null","<p style='font-size: 48px; color: white'>+</p >","","","","","","","","","","","","","","","","","","","","","","","","","","","","","","","","","","","","","","","","","","","","","","","","",""
"","","","","","rdk","125","188240","0.0-5.0-1.0-1.0-1.0-3.0-0.0-0.0-1.2","492","color_test","d","","true","[""d"",""k""]","d","-1","true","1","100","0","0","0","3","1","-1","2","300","300","[""hsl(0, 50%, 50%)"",""hsl(225, 50%, 50%)""]","[""hsl(0, 50%, 50%)"",""hsl(225, 50%, 50%)""]","0","0.55","0","circle","black","3","2","2","16.3","[3,15,17,17,18,16,17,16,16,18,16,17,16,18,16,18,16,17,17,16,16,17,17,17,17,16,18,17,17,17]","30","956","482","false","20","20","black","1","false","1","1","1920","964","d","staircase_color","","","","","",""
"","","","","","html-keyboard-response","126","189210","0.0-5.0-1.0-1.0-1.0-3.0-0.0-0.0-2.2","null","","null","<p style='font-size: 60px; color: green'>正确!</p>","","","","","","","","","","","","","","","","","","","","","","","","","","","","","","","","","","","","","","","","","","","","","","","","",""
"","","","","","html-keyboard-response","127","190176","0.0-5.0-1.0-1.0-1.0-3.0-0.0-0.0-0.3","null","fixation","null","<p style='font-size: 48px; color: white'>+</p >","","","","","","","","","","","","","","","","","","","","","","","","","","","","","","","","","","","","","","","","","","","","","","","","",""
"","","","","","rdk","128","191520","0.0-5.0-1.0-1.0-1.0-3.0-0.0-0.0-1.3","889","color_test","k","","true","[""d"",""k""]","k","-1","true","1","100","0","0","0","3","1","-1","2","300","300","[""hsl(0, 50%, 50%)"",""hsl(225, 50%, 50%)""]","[""hsl(225, 50%, 50%)"",""hsl(0, 50%, 50%)""]","0","0.55","0","circle","black","3","2","2","16.51851851851852","[7,11,17,17,18,16,16,17,16,18,16,17,18,17,17,16,17,16,17,16,18,16,17,17,17,16,18,16,16,17,18,15,17,17,18,16,18,16,16,18,16,17,18,16,18,16,16,17,16,17,16,18,16,18]","54","956","482","false","20","20","black","1","false","1","1","1920","964","k","staircase_color","","","","","",""
"","","","","","html-keyboard-response","129","192475","0.0-5.0-1.0-1.0-1.0-3.0-0.0-0.0-2.3","null","","null","<p style='font-size: 60px; color: green'>正确!</p>","","","","","","","","","","","","","","","","","","","","","","","","","","","","","","","","","","","","","","","","","","","","","","","","",""
"","","","","","html-keyboard-response","130","193432","0.0-5.0-1.0-1.0-1.0-3.0-0.0-0.0-0.4","null","fixation","null","<p style='font-size: 48px; color: white'>+</p >","","","","","","","","","","","","","","","","","","","","","","","","","","","","","","","","","","","","","","","","","","","","","","","","",""
"","","","","","rdk","131","194753","0.0-5.0-1.0-1.0-1.0-3.0-0.0-0.0-1.4","866","color_test","k","","true","[""d"",""k""]","k","-1","true","1","100","0","0","0","3","1","-1","2","300","300","[""hsl(0, 50%, 50%)"",""hsl(225, 50%, 50%)""]","[""hsl(225, 50%, 50%)"",""hsl(0, 50%, 50%)""]","0","0.55","0","circle","black","3","2","2","16.692307692307693","[12,17,17,16,17,17,16,17,17,17,16,17,17,17,17,17,17,17,17,17,16,17,17,17,16,17,17,17,17,16,16,16,17,17,17,17,17,17,17,17,16,17,17,17,16,17,17,16,17,16,17,18]","52","956","482","false","20","20","black","1","false","1","1","1920","964","k","staircase_color","","","","","",""
"","","","","","html-keyboard-response","132","195724","0.0-5.0-1.0-1.0-1.0-3.0-0.0-0.0-2.4","null","","null","<p style='font-size: 60px; color: green'>正确!</p>","","","","","","","","","","","","","","","","","","","","","","","","","","","","","","","","","","","","","","","","","","","","","","","","",""
"","","","","","html-keyboard-response","133","196691","0.0-5.0-1.0-1.0-1.0-3.0-0.0-0.0-0.5","null","fixation","null","<p style='font-size: 48px; color: white'>+</p >","","","","","","","","","","","","","","","","","","","","","","","","","","","","","","","","","","","","","","","","","","","","","","","","",""
"","","","","","rdk","134","198080","0.0-5.0-1.0-1.0-1.0-3.0-0.0-0.0-1.5","930","color_test","d","","false","[""d"",""k""]","k","-1","true","1","100","0","0","0","3","1","-1","2","300","300","[""hsl(0, 50%, 50%)"",""hsl(225, 50%, 50%)""]","[""hsl(225, 50%, 50%)"",""hsl(0, 50%, 50%)""]","0","0.55","0","circle","black","3","2","2","16.89090909090909","[16,17,17,17,16,17,17,17,17,16,17,17,17,17,17,16,17,17,18,16,17,17,16,17,17,17,17,17,17,17,17,17,18,16,17,17,17,17,17,18,16,17,17,16,17,17,17,17,17,17,17,17,16,17,18]","55","956","482","false","20","20","black","1","false","1","1","1920","964","k","staircase_color","","","","","",""
"","","","","","html-keyboard-response","135","199041","0.0-5.0-1.0-1.0-1.0-3.0-0.0-0.0-2.5","null","","null","<p style='font-size: 60px; color: red'>错误!</p>","","","","","","","","","","","","","","","","","","","","","","","","","","","","","","","","","","","","","","","","","","","","","","","","",""
"","","","","","html-keyboard-response","136","200009","0.0-5.0-1.0-1.0-1.0-3.0-0.0-0.0-0.6","null","fixation","null","<p style='font-size: 48px; color: white'>+</p >","","","","","","","","","","","","","","","","","","","","","","","","","","","","","","","","","","","","","","","","","","","","","","","","",""
"","","","","","rdk","137","200944","0.0-5.0-1.0-1.0-1.0-3.0-0.0-0.0-1.6","480","color_test","d","","true","[""d"",""k""]","d","-1","true","1","100","0","0","0","3","1","-1","2","300","300","[""hsl(0, 50%, 50%)"",""hsl(225, 50%, 50%)""]","[""hsl(0, 50%, 50%)"",""hsl(225, 50%, 50%)""]","0","0.55","0","circle","black","3","2","2","16.344827586206897","[3,16,17,17,17,17,17,16,17,17,17,17,17,17,17,17,16,17,17,17,17,16,18,16,17,17,17,16,17]","29","956","482","false","20","20","black","1","false","1","1","1920","964","d","staircase_color","","","","","",""
"","","","","","html-keyboard-response","138","201908","0.0-5.0-1.0-1.0-1.0-3.0-0.0-0.0-2.6","null","","null","<p style='font-size: 60px; color: green'>正确!</p>","","","","","","","","","","","","","","","","","","","","","","","","","","","","","","","","","","","","","","","","","","","","","","","","",""
"","","","","","html-keyboard-response","139","202877","0.0-5.0-1.0-1.0-1.0-3.0-0.0-0.0-0.7","null","fixation","null","<p style='font-size: 48px; color: white'>+</p >","","","","","","","","","","","","","","","","","","","","","","","","","","","","","","","","","","","","","","","","","","","","","","","","",""
"","","","","","rdk","140","203792","0.0-5.0-1.0-1.0-1.0-3.0-0.0-0.0-1.7","461","color_test","d","","true","[""d"",""k""]","d","-1","true","1","100","0","0","0","3","1","-1","2","300","300","[""hsl(0, 50%, 50%)"",""hsl(225, 50%, 50%)""]","[""hsl(0, 50%, 50%)"",""hsl(225, 50%, 50%)""]","0","0.55","0","circle","black","3","2","2","16.285714285714285","[5,13,17,16,18,17,17,17,15,17,18,16,17,16,17,17,17,17,17,17,16,18,16,17,16,17,17,18]","28","956","482","false","20","20","black","1","false","1","1","1920","964","d","staircase_color","","","","","",""
"","","","","","html-keyboard-response","141","204760","0.0-5.0-1.0-1.0-1.0-3.0-0.0-0.0-2.7","null","","null","<p style='font-size: 60px; color: green'>正确!</p>","","","","","","","","","","","","","","","","","","","","","","","","","","","","","","","","","","","","","","","","","","","","","","","","",""
"","","","","","html-keyboard-response","142","205724","0.0-5.0-1.0-1.0-1.0-3.0-0.0-0.0-0.8","null","fixation","null","<p style='font-size: 48px; color: white'>+</p >","","","","","","","","","","","","","","","","","","","","","","","","","","","","","","","","","","","","","","","","","","","","","","","","",""
"","","","","","rdk","143","206704","0.0-5.0-1.0-1.0-1.0-3.0-0.0-0.0-1.8","525","color_test","k","","true","[""d"",""k""]","k","-1","true","1","100","0","0","0","3","1","-1","2","300","300","[""hsl(0, 50%, 50%)"",""hsl(225, 50%, 50%)""]","[""hsl(225, 50%, 50%)"",""hsl(0, 50%, 50%)""]","0","0.55","0","circle","black","3","2","2","16.375","[3,16,17,17,17,17,17,16,17,17,16,17,17,17,18,16,17,17,17,17,17,18,16,17,17,16,17,17,16,17,16,17]","32","956","482","false","20","20","black","1","false","1","1","1920","964","k","staircase_color","","","","","",""
"","","","","","html-keyboard-response","144","207676","0.0-5.0-1.0-1.0-1.0-3.0-0.0-0.0-2.8","null","","null","<p style='font-size: 60px; color: green'>正确!</p>","","","","","","","","","","","","","","","","","","","","","","","","","","","","","","","","","","","","","","","","","","","","","","","","",""
"","","","","","html-keyboard-response","145","208643","0.0-5.0-1.0-1.0-1.0-3.0-0.0-0.0-0.9","null","fixation","null","<p style='font-size: 48px; color: white'>+</p >","","","","","","","","","","","","","","","","","","","","","","","","","","","","","","","","","","","","","","","","","","","","","","","","",""
"","","","","","rdk","146","209663","0.0-5.0-1.0-1.0-1.0-3.0-0.0-0.0-1.9","565","color_test","d","","false","[""d"",""k""]","k","-1","true","1","100","0","0","0","3","1","-1","2","300","300","[""hsl(0, 50%, 50%)"",""hsl(225, 50%, 50%)""]","[""hsl(225, 50%, 50%)"",""hsl(0, 50%, 50%)""]","0","0.55","0","circle","black","3","2","2","16.41176470588235","[1,17,17,17,17,17,16,16,17,17,17,17,17,17,17,17,17,17,17,16,17,17,17,17,17,17,17,16,17,17,17,17,17,17]","34","956","482","false","20","20","black","1","false","1","1","1920","964","k","staircase_color","","","","","",""
"","","","","","html-keyboard-response","147","210625","0.0-5.0-1.0-1.0-1.0-3.0-0.0-0.0-2.9","null","","null","<p style='font-size: 60px; color: red'>错误!</p>","","","","","","","","","","","","","","","","","","","","","","","","","","","","","","","","","","","","","","","","","","","","","","","","",""
"","","","","","html-keyboard-response","148","211590","0.0-5.0-1.0-1.0-1.0-3.0-0.0-0.0-0.10","null","fixation","null","<p style='font-size: 48px; color: white'>+</p >","","","","","","","","","","","","","","","","","","","","","","","","","","","","","","","","","","","","","","","","","","","","","","","","",""
"","","","","","rdk","149","212592","0.0-5.0-1.0-1.0-1.0-3.0-0.0-0.0-1.10","545","color_test","d","","true","[""d"",""k""]","d","-1","true","1","100","0","0","0","3","1","-1","2","300","300","[""hsl(0, 50%, 50%)"",""hsl(225, 50%, 50%)""]","[""hsl(0, 50%, 50%)"",""hsl(225, 50%, 50%)""]","0","0.55","0","circle","black","3","2","2","16.303030303030305","[3,16,17,16,18,17,17,17,16,17,16,18,16,18,16,17,17,16,17,16,17,17,17,17,16,16,17,17,17,16,17,17,16]","33","956","482","false","20","20","black","1","false","1","1","1920","964","d","staircase_color","","","","","",""
"","","","","","html-keyboard-response","150","213562","0.0-5.0-1.0-1.0-1.0-3.0-0.0-0.0-2.10","null","","null","<p style='font-size: 60px; color: green'>正确!</p>","","","","","","","","","","","","","","","","","","","","","","","","","","","","","","","","","","","","","","","","","","","","","","","","",""
"","","","","","html-keyboard-response","151","214524","0.0-5.0-1.0-1.0-1.0-3.0-0.0-0.0-0.11","null","fixation","null","<p style='font-size: 48px; color: white'>+</p >","","","","","","","","","","","","","","","","","","","","","","","","","","","","","","","","","","","","","","","","","","","","","","","","",""
"","","","","","rdk","152","215696","0.0-5.0-1.0-1.0-1.0-3.0-0.0-0.0-1.11","710","color_test","k","","false","[""d"",""k""]","d","-1","true","1","100","0","0","0","3","1","-1","2","300","300","[""hsl(0, 50%, 50%)"",""hsl(225, 50%, 50%)""]","[""hsl(0, 50%, 50%)"",""hsl(225, 50%, 50%)""]","0","0.55","0","circle","black","3","2","2","16.714285714285715","[13,17,17,17,16,17,17,18,16,18,16,17,16,17,17,17,17,16,17,17,17,16,17,16,17,17,17,17,17,17,17,17,17,17,17,16,17,17,17,17,16,16]","42","956","482","false","20","20","black","1","false","1","1","1920","964","d","staircase_color","","","","","",""
"","","","","","html-keyboard-response","153","216659","0.0-5.0-1.0-1.0-1.0-3.0-0.0-0.0-2.11","null","","null","<p style='font-size: 60px; color: red'>错误!</p>","","","","","","","","","","","","","","","","","","","","","","","","","","","","","","","","","","","","","","","","","","","","","","","","",""
"","","","","","html-keyboard-response","154","219124","0.0-5.0-1.0-1.0-1.0-3.0-0.0-1.0","null","","null","<p style='font-size: 35px; color: white'>您的正确率为： 75% 。平均反应时为：636毫秒。</p>","","","","","","","","","","","","","","","","","","","","","","","","","","","","","","","","","","","","","","","","","","","","","","","","",""
"","","","","","html-keyboard-response","155","227040","0.0-5.0-1.0-1.0-2.0","7460","instruction_taskSeparate"," ","
    <div style=""text-align: left; color: white; padding: 10px""> 
      <p>现在是运动方向判断</p>
      <p>您需要<span style=""font-weight: bold"">忽略点的颜色</span>并判断一致的运动方向是向左还是向右:</p >
        <ul>
          <li><span style=""font-weight: bold"">向左</span>，请按键盘 <span style=""font-weight: bold"">左键</span></li>
          <li><span style=""font-weight: bold"">向右</span>，请按键盘 <span style=""font-weight: bold"">右键</span> </li>
        </ul>
      <p>准备好后请按空格键开始</p>
    </div>","","","","","","","","","","","","","","","","","","","","","","","","","","","","","","","","","","","","","","","","","","","","","","","","",""
"","","","","","html-keyboard-response","156","228007","0.0-5.0-1.0-1.0-3.0-0.0-0.0-0.0-0.0","null","fixation","null","<p style='font-size: 48px; color: white'>+</p >","","","","","","","","","","","","","","","","","","","","","","","","","","","","","","","","","","","","","","","","","","","","","","","","",""
"","","","","","rdk","157","229520","0.0-5.0-1.0-1.0-3.0-0.0-0.0-0.0-1.0","1054","motion_test","arrowright","","true","[""ArrowLeft"",""ArrowRight""]","ArrowRight","-1","true","1","100","0","0.1","0","3","1","-1","2","300","300","[""white""]","[""hsl(0, 50%, 50%)"",""hsl(225, 50%, 50%)""]","0","0.5","0","circle","black","3","2","2","16.46875","[2,14,17,17,18,18,15,17,16,17,17,16,16,17,17,18,16,17,17,17,16,18,15,17,17,17,17,16,18,18,15,17,17,16,18,16,16,16,17,17,17,17,17,17,16,17,16,18,16,17,17,16,17,16,17,15,18,17,16,18,16,17,16,17]","64","956","482","false","20","20","black","1","false","1","1","1920","964","ArrowRight","staircase_motion","","","","","",""
"","","","","","html-keyboard-response","158","230492","0.0-5.0-1.0-1.0-3.0-0.0-0.0-0.0-2.0","null","","null","<p style='font-size: 60px; color: green'>正确!</p>","","","","","","","","","","","","","","","","","","","","","","","","","","","","","","","","","","","","","","","","","","","","","","","","",""
"","","","","","html-keyboard-response","159","231457","0.0-5.0-1.0-1.0-3.0-0.0-0.0-0.0-0.1","null","fixation","null","<p style='font-size: 48px; color: white'>+</p >","","","","","","","","","","","","","","","","","","","","","","","","","","","","","","","","","","","","","","","","","","","","","","","","",""
"","","","","","rdk","160","232512","0.0-5.0-1.0-1.0-3.0-0.0-0.0-0.0-1.1","595","motion_test","arrowleft","","true","[""ArrowLeft"",""ArrowRight""]","ArrowLeft","-1","true","1","100","180","0.1","0","3","1","-1","2","300","300","[""white""]","[""hsl(0, 50%, 50%)"",""hsl(225, 50%, 50%)""]","0","0.5","0","circle","black","3","2","2","16.714285714285715","[16,16,16,17,18,17,17,16,17,17,16,17,17,17,17,16,18,17,16,17,16,17,17,17,16,16,17,16,17,18,16,17,17,17,16]","35","956","482","false","20","20","black","1","false","1","1","1920","964","ArrowLeft","staircase_motion","","","","","",""
"","","","","","html-keyboard-response","161","233476","0.0-5.0-1.0-1.0-3.0-0.0-0.0-0.0-2.1","null","","null","<p style='font-size: 60px; color: green'>正确!</p>","","","","","","","","","","","","","","","","","","","","","","","","","","","","","","","","","","","","","","","","","","","","","","","","",""
"","","","","","html-keyboard-response","162","234441","0.0-5.0-1.0-1.0-3.0-0.0-0.0-0.0-0.2","null","fixation","null","<p style='font-size: 48px; color: white'>+</p >","","","","","","","","","","","","","","","","","","","","","","","","","","","","","","","","","","","","","","","","","","","","","","","","",""
"","","","","","rdk","163","235311","0.0-5.0-1.0-1.0-3.0-0.0-0.0-0.0-1.2","413","motion_test","arrowright","","true","[""ArrowLeft"",""ArrowRight""]","ArrowRight","-1","true","1","100","0","0.1","0","3","1","-1","2","300","300","[""white""]","[""hsl(0, 50%, 50%)"",""hsl(225, 50%, 50%)""]","0","0.5","0","circle","black","3","2","2","16.16","[1,16,17,18,16,17,17,17,16,18,16,18,16,17,16,18,15,18,17,17,16,17,16,17,17]","25","956","482","false","20","20","black","1","false","1","1","1920","964","ArrowRight","staircase_motion","","","","","",""
"","","","","","html-keyboard-response","164","236274","0.0-5.0-1.0-1.0-3.0-0.0-0.0-0.0-2.2","null","","null","<p style='font-size: 60px; color: green'>正确!</p>","","","","","","","","","","","","","","","","","","","","","","","","","","","","","","","","","","","","","","","","","","","","","","","","",""
"","","","","","html-keyboard-response","165","237242","0.0-5.0-1.0-1.0-3.0-0.0-0.0-0.0-0.3","null","fixation","null","<p style='font-size: 48px; color: white'>+</p >","","","","","","","","","","","","","","","","","","","","","","","","","","","","","","","","","","","","","","","","","","","","","","","","",""
"","","","","","rdk","166","238128","0.0-5.0-1.0-1.0-3.0-0.0-0.0-0.0-1.3","430","motion_test","arrowleft","","true","[""ArrowLeft"",""ArrowRight""]","ArrowLeft","-1","true","1","100","180","0.1","0","3","1","-1","2","300","300","[""white""]","[""hsl(0, 50%, 50%)"",""hsl(225, 50%, 50%)""]","0","0.5","0","circle","black","3","2","2","16.153846153846153","[6,12,17,17,16,18,17,17,16,16,17,16,17,17,17,17,16,18,16,16,17,16,17,18,16,17]","26","956","482","false","20","20","black","1","false","1","1","1920","964","ArrowLeft","staircase_motion","","","","","",""
"","","","","","html-keyboard-response","167","239096","0.0-5.0-1.0-1.0-3.0-0.0-0.0-0.0-2.3","null","","null","<p style='font-size: 60px; color: green'>正确!</p>","","","","","","","","","","","","","","","","","","","","","","","","","","","","","","","","","","","","","","","","","","","","","","","","",""
"","","","","","html-keyboard-response","168","240059","0.0-5.0-1.0-1.0-3.0-0.0-0.0-0.0-0.4","null","fixation","null","<p style='font-size: 48px; color: white'>+</p >","","","","","","","","","","","","","","","","","","","","","","","","","","","","","","","","","","","","","","","","","","","","","","","","",""
"","","","","","rdk","169","240928","0.0-5.0-1.0-1.0-3.0-0.0-0.0-0.0-1.4","415","motion_test","arrowright","","true","[""ArrowLeft"",""ArrowRight""]","ArrowRight","-1","true","1","100","0","0.1","0","3","1","-1","2","300","300","[""white""]","[""hsl(0, 50%, 50%)"",""hsl(225, 50%, 50%)""]","0","0.5","0","circle","black","3","2","2","16.916666666666668","[19,16,17,17,16,17,17,17,17,17,16,17,17,17,17,17,17,16,17,18,16,17,17,17]","24","956","482","false","20","20","black","1","false","1","1","1920","964","ArrowRight","staircase_motion","","","","","",""
"","","","","","html-keyboard-response","170","241893","0.0-5.0-1.0-1.0-3.0-0.0-0.0-0.0-2.4","null","","null","<p style='font-size: 60px; color: green'>正确!</p>","","","","","","","","","","","","","","","","","","","","","","","","","","","","","","","","","","","","","","","","","","","","","","","","",""
"","","","","","html-keyboard-response","171","242856","0.0-5.0-1.0-1.0-3.0-0.0-0.0-0.0-0.5","null","fixation","null","<p style='font-size: 48px; color: white'>+</p >","","","","","","","","","","","","","","","","","","","","","","","","","","","","","","","","","","","","","","","","","","","","","","","","",""
"","","","","","rdk","172","243728","0.0-5.0-1.0-1.0-3.0-0.0-0.0-0.0-1.5","414","motion_test","arrowleft","","true","[""ArrowLeft"",""ArrowRight""]","ArrowLeft","-1","true","1","100","180","0.1","0","3","1","-1","2","300","300","[""white""]","[""hsl(0, 50%, 50%)"",""hsl(225, 50%, 50%)""]","0","0.5","0","circle","black","3","2","2","16.28","[3,16,17,17,17,17,17,17,16,17,18,17,17,17,16,17,17,16,17,17,16,18,16,17,17]","25","956","482","false","20","20","black","1","false","1","1","1920","964","ArrowLeft","staircase_motion","","","","","",""
"","","","","","html-keyboard-response","173","244692","0.0-5.0-1.0-1.0-3.0-0.0-0.0-0.0-2.5","null","","null","<p style='font-size: 60px; color: green'>正确!</p>","","","","","","","","","","","","","","","","","","","","","","","","","","","","","","","","","","","","","","","","","","","","","","","","",""
"","","","","","html-keyboard-response","174","245658","0.0-5.0-1.0-1.0-3.0-0.0-0.0-0.0-0.6","null","fixation","null","<p style='font-size: 48px; color: white'>+</p >","","","","","","","","","","","","","","","","","","","","","","","","","","","","","","","","","","","","","","","","","","","","","","","","",""
"","","","","","rdk","175","246592","0.0-5.0-1.0-1.0-3.0-0.0-0.0-0.0-1.6","478","motion_test","arrowleft","","true","[""ArrowLeft"",""ArrowRight""]","ArrowLeft","-1","true","1","100","180","0.1","0","3","1","-1","2","300","300","[""white""]","[""hsl(0, 50%, 50%)"",""hsl(225, 50%, 50%)""]","0","0.5","0","circle","black","3","2","2","16.310344827586206","[3,17,17,17,17,17,16,16,17,16,18,16,18,17,16,18,17,16,18,16,17,16,16,18,17,16,17,18,15]","29","956","482","false","20","20","black","1","false","1","1","1920","964","ArrowLeft","staircase_motion","","","","","",""
"","","","","","html-keyboard-response","176","247559","0.0-5.0-1.0-1.0-3.0-0.0-0.0-0.0-2.6","null","","null","<p style='font-size: 60px; color: green'>正确!</p>","","","","","","","","","","","","","","","","","","","","","","","","","","","","","","","","","","","","","","","","","","","","","","","","",""
"","","","","","html-keyboard-response","177","248526","0.0-5.0-1.0-1.0-3.0-0.0-0.0-0.0-0.7","null","fixation","null","<p style='font-size: 48px; color: white'>+</p >","","","","","","","","","","","","","","","","","","","","","","","","","","","","","","","","","","","","","","","","","","","","","","","","",""
"","","","","","rdk","178","249711","0.0-5.0-1.0-1.0-3.0-0.0-0.0-0.0-1.7","731","motion_test","arrowright","","true","[""ArrowLeft"",""ArrowRight""]","ArrowRight","-1","true","1","100","0","0.1","0","3","1","-1","2","300","300","[""white""]","[""hsl(0, 50%, 50%)"",""hsl(225, 50%, 50%)""]","0","0.5","0","circle","black","3","2","2","16.386363636363637","[8,10,17,17,16,17,18,16,17,17,17,16,18,16,17,17,16,17,17,16,17,17,16,17,16,16,17,17,18,15,18,17,16,17,16,18,16,17,16,17,17,16,17,17]","44","956","482","false","20","20","black","1","false","1","1","1920","964","ArrowRight","staircase_motion","","","","","",""
"","","","","","html-keyboard-response","179","250676","0.0-5.0-1.0-1.0-3.0-0.0-0.0-0.0-2.7","null","","null","<p style='font-size: 60px; color: green'>正确!</p>","","","","","","","","","","","","","","","","","","","","","","","","","","","","","","","","","","","","","","","","","","","","","","","","",""
"","","","","","html-keyboard-response","180","251641","0.0-5.0-1.0-1.0-3.0-0.0-0.0-0.0-0.8","null","fixation","null","<p style='font-size: 48px; color: white'>+</p >","","","","","","","","","","","","","","","","","","","","","","","","","","","","","","","","","","","","","","","","","","","","","","","","",""
"","","","","","rdk","181","252943","0.0-5.0-1.0-1.0-3.0-0.0-0.0-0.0-1.8","847","motion_test","arrowleft","","false","[""ArrowLeft"",""ArrowRight""]","ArrowRight","-1","true","1","100","0","0.1","0","3","1","-1","2","300","300","[""white""]","[""hsl(0, 50%, 50%)"",""hsl(225, 50%, 50%)""]","0","0.5","0","circle","black","3","2","2","16.607843137254903","[3,16,17,17,18,16,17,16,17,18,16,18,16,17,17,17,16,18,16,17,17,17,17,17,17,17,17,17,17,17,17,17,17,17,17,17,16,17,17,17,17,17,17,17,17,17,17,16,17,16,17]","51","956","482","false","20","20","black","1","false","1","1","1920","964","ArrowRight","staircase_motion","","","","","",""
"","","","","","html-keyboard-response","182","253911","0.0-5.0-1.0-1.0-3.0-0.0-0.0-0.0-2.8","null","","null","<p style='font-size: 60px; color: red'>错误!</p>","","","","","","","","","","","","","","","","","","","","","","","","","","","","","","","","","","","","","","","","","","","","","","","","",""
"","","","","","html-keyboard-response","183","254873","0.0-5.0-1.0-1.0-3.0-0.0-0.0-0.0-0.9","null","fixation","null","<p style='font-size: 48px; color: white'>+</p >","","","","","","","","","","","","","","","","","","","","","","","","","","","","","","","","","","","","","","","","","","","","","","","","",""
"","","","","","rdk","184","255856","0.0-5.0-1.0-1.0-3.0-0.0-0.0-0.0-1.9","522","motion_test","arrowleft","","true","[""ArrowLeft"",""ArrowRight""]","ArrowLeft","-1","true","1","100","180","0.1","0","3","1","-1","2","300","300","[""white""]","[""hsl(0, 50%, 50%)"",""hsl(225, 50%, 50%)""]","0","0.5","0","circle","black","3","2","2","16.741935483870968","[15,17,16,17,17,17,17,16,17,17,17,17,16,17,17,17,17,16,16,16,17,17,17,17,18,16,17,16,17,17,18]","31","956","482","false","20","20","black","1","false","1","1","1920","964","ArrowLeft","staircase_motion","","","","","",""
"","","","","","html-keyboard-response","185","256826","0.0-5.0-1.0-1.0-3.0-0.0-0.0-0.0-2.9","null","","null","<p style='font-size: 60px; color: green'>正确!</p>","","","","","","","","","","","","","","","","","","","","","","","","","","","","","","","","","","","","","","","","","","","","","","","","",""
"","","","","","html-keyboard-response","186","257792","0.0-5.0-1.0-1.0-3.0-0.0-0.0-0.0-0.10","null","fixation","null","<p style='font-size: 48px; color: white'>+</p >","","","","","","","","","","","","","","","","","","","","","","","","","","","","","","","","","","","","","","","","","","","","","","","","",""
"","","","","","rdk","187","258736","0.0-5.0-1.0-1.0-3.0-0.0-0.0-0.0-1.10","489","motion_test","arrowright","","true","[""ArrowLeft"",""ArrowRight""]","ArrowRight","-1","true","1","100","0","0.1","0","3","1","-1","2","300","300","[""white""]","[""hsl(0, 50%, 50%)"",""hsl(225, 50%, 50%)""]","0","0.5","0","circle","black","3","2","2","16.3","[3,15,17,18,17,17,17,17,16,18,16,18,16,17,17,17,17,16,16,16,18,16,17,17,17,17,16,18,16,16]","30","956","482","false","20","20","black","1","false","1","1","1920","964","ArrowRight","staircase_motion","","","","","",""
"","","","","","html-keyboard-response","188","259708","0.0-5.0-1.0-1.0-3.0-0.0-0.0-0.0-2.10","null","","null","<p style='font-size: 60px; color: green'>正确!</p>","","","","","","","","","","","","","","","","","","","","","","","","","","","","","","","","","","","","","","","","","","","","","","","","",""
"","","","","","html-keyboard-response","189","260674","0.0-5.0-1.0-1.0-3.0-0.0-0.0-0.0-0.11","null","fixation","null","<p style='font-size: 48px; color: white'>+</p >","","","","","","","","","","","","","","","","","","","","","","","","","","","","","","","","","","","","","","","","","","","","","","","","",""
"","","","","","rdk","190","261728","0.0-5.0-1.0-1.0-3.0-0.0-0.0-0.0-1.11","596","motion_test","arrowright","","false","[""ArrowLeft"",""ArrowRight""]","ArrowLeft","-1","true","1","100","180","0.1","0","3","1","-1","2","300","300","[""white""]","[""hsl(0, 50%, 50%)"",""hsl(225, 50%, 50%)""]","0","0.5","0","circle","black","3","2","2","16.416666666666668","[5,12,17,17,17,17,17,18,16,18,16,18,17,17,16,17,16,18,15,19,15,17,18,16,18,16,18,16,16,18,16,18,15,17,17,17]","36","956","482","false","20","20","black","1","false","1","1","1920","964","ArrowLeft","staircase_motion","","","","","",""
"","","","","","html-keyboard-response","191","262692","0.0-5.0-1.0-1.0-3.0-0.0-0.0-0.0-2.11","null","","null","<p style='font-size: 60px; color: red'>错误!</p>","","","","","","","","","","","","","","","","","","","","","","","","","","","","","","","","","","","","","","","","","","","","","","","","",""
"","","","","","html-keyboard-response","192","265155","0.0-5.0-1.0-1.0-3.0-0.0-0.0-1.0","null","","null","<p style='font-size: 35px; color: white'>您的正确率为： 83% 。平均反应时为：582毫秒。</p>","","","","","","","","","","","","","","","","","","","","","","","","","","","","","","","","","","","","","","","","","","","","","","","","",""
"","","","","","html-keyboard-response","193","266125","0.0-5.0-1.0-1.0-3.0-1.0-0.0-0.0-0.0","null","fixation","null","<p style='font-size: 48px; color: white'>+</p >","","","","","","","","","","","","","","","","","","","","","","","","","","","","","","","","","","","","","","","","","","","","","","","","",""
"","","","","","rdk","194","267040","0.0-5.0-1.0-1.0-3.0-1.0-0.0-0.0-1.0","460","motion_test","arrowleft","","true","[""ArrowLeft"",""ArrowRight""]","ArrowLeft","-1","true","1","100","180","0.07","0","3","1","-1","2","300","300","[""white""]","[""hsl(0, 50%, 50%)"",""hsl(225, 50%, 50%)""]","0","0.5","0","circle","black","3","2","2","16.321428571428573","[3,16,17,16,17,17,17,17,17,17,17,17,17,16,17,17,16,16,18,16,17,17,17,17,17,17,17,17]","28","956","482","false","20","20","black","1","false","1","1","1920","964","ArrowLeft","staircase_motion","","","","","",""
"","","","","","html-keyboard-response","195","268010","0.0-5.0-1.0-1.0-3.0-1.0-0.0-0.0-2.0","null","","null","<p style='font-size: 60px; color: green'>正确!</p>","","","","","","","","","","","","","","","","","","","","","","","","","","","","","","","","","","","","","","","","","","","","","","","","",""
"","","","","","html-keyboard-response","196","268975","0.0-5.0-1.0-1.0-3.0-1.0-0.0-0.0-0.1","null","fixation","null","<p style='font-size: 48px; color: white'>+</p >","","","","","","","","","","","","","","","","","","","","","","","","","","","","","","","","","","","","","","","","","","","","","","","","",""
"","","","","","rdk","197","270160","0.0-5.0-1.0-1.0-3.0-1.0-0.0-0.0-1.1","727","motion_test","arrowleft","","false","[""ArrowLeft"",""ArrowRight""]","ArrowRight","-1","true","1","100","0","0.07","0","3","1","-1","2","300","300","[""white""]","[""hsl(0, 50%, 50%)"",""hsl(225, 50%, 50%)""]","0","0.5","0","circle","black","3","2","2","16.74418604651163","[18,16,17,17,16,17,16,17,17,17,17,16,17,18,16,17,17,17,18,16,17,16,17,17,16,17,17,16,17,16,17,17,16,17,16,17,17,17,17,15,18,16,17]","43","956","482","false","20","20","black","1","false","1","1","1920","964","ArrowRight","staircase_motion","","","","","",""
"","","","","","html-keyboard-response","198","271125","0.0-5.0-1.0-1.0-3.0-1.0-0.0-0.0-2.1","null","","null","<p style='font-size: 60px; color: red'>错误!</p>","","","","","","","","","","","","","","","","","","","","","","","","","","","","","","","","","","","","","","","","","","","","","","","","",""
"","","","","","html-keyboard-response","199","272090","0.0-5.0-1.0-1.0-3.0-1.0-0.0-0.0-0.2","null","fixation","null","<p style='font-size: 48px; color: white'>+</p >","","","","","","","","","","","","","","","","","","","","","","","","","","","","","","","","","","","","","","","","","","","","","","","","",""
"","","","","","rdk","200","273024","0.0-5.0-1.0-1.0-3.0-1.0-0.0-0.0-1.2","477","motion_test","arrowleft","","true","[""ArrowLeft"",""ArrowRight""]","ArrowLeft","-1","true","1","100","180","0.07","0","3","1","-1","2","300","300","[""white""]","[""hsl(0, 50%, 50%)"",""hsl(225, 50%, 50%)""]","0","0.5","0","circle","black","3","2","2","16.892857142857142","[19,17,17,17,17,17,17,17,16,17,17,17,16,17,16,16,17,17,17,17,17,17,17,17,17,17,16,17]","28","956","482","false","20","20","black","1","false","1","1","1920","964","ArrowLeft","staircase_motion","","","","","",""
"","","","","","html-keyboard-response","201","273992","0.0-5.0-1.0-1.0-3.0-1.0-0.0-0.0-2.2","null","","null","<p style='font-size: 60px; color: green'>正确!</p>","","","","","","","","","","","","","","","","","","","","","","","","","","","","","","","","","","","","","","","","","","","","","","","","",""
"","","","","","html-keyboard-response","202","274962","0.0-5.0-1.0-1.0-3.0-1.0-0.0-0.0-0.3","null","fixation","null","<p style='font-size: 48px; color: white'>+</p >","","","","","","","","","","","","","","","","","","","","","","","","","","","","","","","","","","","","","","","","","","","","","","","","",""
"","","","","","rdk","203","275792","0.0-5.0-1.0-1.0-3.0-1.0-0.0-0.0-1.3","376","motion_test","arrowright","","true","[""ArrowLeft"",""ArrowRight""]","ArrowRight","-1","true","1","100","0","0.07","0","3","1","-1","2","300","300","[""white""]","[""hsl(0, 50%, 50%)"",""hsl(225, 50%, 50%)""]","0","0.5","0","circle","black","3","2","2","16.727272727272727","[17,15,17,17,18,16,17,18,16,17,16,17,16,17,17,17,17,16,17,16,17,17]","22","956","482","false","20","20","black","1","false","1","1","1920","964","ArrowRight","staircase_motion","","","","","",""
"","","","","","html-keyboard-response","204","276759","0.0-5.0-1.0-1.0-3.0-1.0-0.0-0.0-2.3","null","","null","<p style='font-size: 60px; color: green'>正确!</p>","","","","","","","","","","","","","","","","","","","","","","","","","","","","","","","","","","","","","","","","","","","","","","","","",""
"","","","","","html-keyboard-response","205","277727","0.0-5.0-1.0-1.0-3.0-1.0-0.0-0.0-0.4","null","fixation","null","<p style='font-size: 48px; color: white'>+</p >","","","","","","","","","","","","","","","","","","","","","","","","","","","","","","","","","","","","","","","","","","","","","","","","",""
"","","","","","rdk","206","278640","0.0-5.0-1.0-1.0-3.0-1.0-0.0-0.0-1.4","460","motion_test","arrowleft","","false","[""ArrowLeft"",""ArrowRight""]","ArrowRight","-1","true","1","100","0","0.07","0","3","1","-1","2","300","300","[""white""]","[""hsl(0, 50%, 50%)"",""hsl(225, 50%, 50%)""]","0","0.5","0","circle","black","3","2","2","16.962962962962962","[19,17,17,17,17,17,17,16,17,17,18,16,17,17,17,17,17,17,17,17,17,16,17,17,17,16,17]","27","956","482","false","20","20","black","1","false","1","1","1920","964","ArrowRight","staircase_motion","","","","","",""
"","","","","","html-keyboard-response","207","279609","0.0-5.0-1.0-1.0-3.0-1.0-0.0-0.0-2.4","null","","null","<p style='font-size: 60px; color: red'>错误!</p>","","","","","","","","","","","","","","","","","","","","","","","","","","","","","","","","","","","","","","","","","","","","","","","","",""
"","","","","","html-keyboard-response","208","280573","0.0-5.0-1.0-1.0-3.0-1.0-0.0-0.0-0.5","null","fixation","null","<p style='font-size: 48px; color: white'>+</p >","","","","","","","","","","","","","","","","","","","","","","","","","","","","","","","","","","","","","","","","","","","","","","","","",""
"","","","","","rdk","209","281456","0.0-5.0-1.0-1.0-3.0-1.0-0.0-0.0-1.5","425","motion_test","arrowleft","","true","[""ArrowLeft"",""ArrowRight""]","ArrowLeft","-1","true","1","100","180","0.07","0","3","1","-1","2","300","300","[""white""]","[""hsl(0, 50%, 50%)"",""hsl(225, 50%, 50%)""]","0","0.5","0","circle","black","3","2","2","16.346153846153847","[3,16,17,17,16,17,17,16,18,16,18,16,17,17,17,17,17,17,18,16,18,16,18,17,16,17]","26","956","482","false","20","20","black","1","false","1","1","1920","964","ArrowLeft","staircase_motion","","","","","",""
"","","","","","html-keyboard-response","210","282424","0.0-5.0-1.0-1.0-3.0-1.0-0.0-0.0-2.5","null","","null","<p style='font-size: 60px; color: green'>正确!</p>","","","","","","","","","","","","","","","","","","","","","","","","","","","","","","","","","","","","","","","","","","","","","","","","",""
"","","","","","html-keyboard-response","211","283392","0.0-5.0-1.0-1.0-3.0-1.0-0.0-0.0-0.6","null","fixation","null","<p style='font-size: 48px; color: white'>+</p >","","","","","","","","","","","","","","","","","","","","","","","","","","","","","","","","","","","","","","","","","","","","","","","","",""
"","","","","","rdk","212","284303","0.0-5.0-1.0-1.0-3.0-1.0-0.0-0.0-1.6","452","motion_test","arrowright","","true","[""ArrowLeft"",""ArrowRight""]","ArrowRight","-1","true","1","100","0","0.07","0","3","1","-1","2","300","300","[""white""]","[""hsl(0, 50%, 50%)"",""hsl(225, 50%, 50%)""]","0","0.5","0","circle","black","3","2","2","16.703703703703702","[14,16,16,17,17,17,17,17,16,17,17,17,16,16,17,17,17,17,17,17,18,16,17,17,18,16,17]","27","956","482","false","20","20","black","1","false","1","1","1920","964","ArrowRight","staircase_motion","","","","","",""
"","","","","","html-keyboard-response","213","285277","0.0-5.0-1.0-1.0-3.0-1.0-0.0-0.0-2.6","null","","null","<p style='font-size: 60px; color: green'>正确!</p>","","","","","","","","","","","","","","","","","","","","","","","","","","","","","","","","","","","","","","","","","","","","","","","","",""
"","","","","","html-keyboard-response","214","286242","0.0-5.0-1.0-1.0-3.0-1.0-0.0-0.0-0.7","null","fixation","null","<p style='font-size: 48px; color: white'>+</p >","","","","","","","","","","","","","","","","","","","","","","","","","","","","","","","","","","","","","","","","","","","","","","","","",""
"","","","","","rdk","215","287456","0.0-5.0-1.0-1.0-3.0-1.0-0.0-0.0-1.7","757","motion_test","arrowleft","","true","[""ArrowLeft"",""ArrowRight""]","ArrowLeft","-1","true","1","100","180","0.07","0","3","1","-1","2","300","300","[""white""]","[""hsl(0, 50%, 50%)"",""hsl(225, 50%, 50%)""]","0","0.5","0","circle","black","3","2","2","16.755555555555556","[17,16,17,17,17,16,17,17,17,18,16,17,16,17,18,16,16,18,17,15,17,16,17,16,18,16,18,16,18,17,16,16,18,15,17,17,17,17,16,18,15,18,16,16,18]","45","956","482","false","20","20","black","1","false","1","1","1920","964","ArrowLeft","staircase_motion","","","","","",""
"","","","","","html-keyboard-response","216","288425","0.0-5.0-1.0-1.0-3.0-1.0-0.0-0.0-2.7","null","","null","<p style='font-size: 60px; color: green'>正确!</p>","","","","","","","","","","","","","","","","","","","","","","","","","","","","","","","","","","","","","","","","","","","","","","","","",""
"","","","","","html-keyboard-response","217","289392","0.0-5.0-1.0-1.0-3.0-1.0-0.0-0.0-0.8","null","fixation","null","<p style='font-size: 48px; color: white'>+</p >","","","","","","","","","","","","","","","","","","","","","","","","","","","","","","","","","","","","","","","","","","","","","","","","",""
"","","","","","rdk","218","290159","0.0-5.0-1.0-1.0-3.0-1.0-0.0-0.0-1.8","312","motion_test","arrowleft","","false","[""ArrowLeft"",""ArrowRight""]","ArrowRight","-1","true","1","100","0","0.07","0","3","1","-1","2","300","300","[""white""]","[""hsl(0, 50%, 50%)"",""hsl(225, 50%, 50%)""]","0","0.5","0","circle","black","3","2","2","15.894736842105264","[3,15,17,17,17,16,17,16,17,17,17,17,16,17,17,16,17,16,17]","19","956","482","false","20","20","black","1","false","1","1","1920","964","ArrowRight","staircase_motion","","","","","",""
"","","","","","html-keyboard-response","219","291125","0.0-5.0-1.0-1.0-3.0-1.0-0.0-0.0-2.8","null","","null","<p style='font-size: 60px; color: red'>错误!</p>","","","","","","","","","","","","","","","","","","","","","","","","","","","","","","","","","","","","","","","","","","","","","","","","",""
"","","","","","html-keyboard-response","220","292091","0.0-5.0-1.0-1.0-3.0-1.0-0.0-0.0-0.9","null","fixation","null","<p style='font-size: 48px; color: white'>+</p >","","","","","","","","","","","","","","","","","","","","","","","","","","","","","","","","","","","","","","","","","","","","","","","","",""
"","","","","","rdk","221","292912","0.0-5.0-1.0-1.0-3.0-1.0-0.0-0.0-1.9","365","motion_test","arrowleft","","true","[""ArrowLeft"",""ArrowRight""]","ArrowLeft","-1","true","1","100","180","0.07","0","3","1","-1","2","300","300","[""white""]","[""hsl(0, 50%, 50%)"",""hsl(225, 50%, 50%)""]","0","0.5","0","circle","black","3","2","2","16.136363636363637","[2,16,17,17,18,16,18,17,16,18,16,17,17,16,17,16,17,17,16,17,16,18]","22","956","482","false","20","20","black","1","false","1","1","1920","964","ArrowLeft","staircase_motion","","","","","",""
"","","","","","html-keyboard-response","222","293878","0.0-5.0-1.0-1.0-3.0-1.0-0.0-0.0-2.9","null","","null","<p style='font-size: 60px; color: green'>正确!</p>","","","","","","","","","","","","","","","","","","","","","","","","","","","","","","","","","","","","","","","","","","","","","","","","",""
"","","","","","html-keyboard-response","223","294842","0.0-5.0-1.0-1.0-3.0-1.0-0.0-0.0-0.10","null","fixation","null","<p style='font-size: 48px; color: white'>+</p >","","","","","","","","","","","","","","","","","","","","","","","","","","","","","","","","","","","","","","","","","","","","","","","","",""
"","","","","","rdk","224","295808","0.0-5.0-1.0-1.0-3.0-1.0-0.0-0.0-1.10","509","motion_test","arrowleft","","false","[""ArrowLeft"",""ArrowRight""]","ArrowRight","-1","true","1","100","0","0.07","0","3","1","-1","2","300","300","[""white""]","[""hsl(0, 50%, 50%)"",""hsl(225, 50%, 50%)""]","0","0.5","0","circle","black","3","2","2","16.29032258064516","[1,17,17,18,16,16,18,17,16,18,16,18,16,17,16,18,16,17,17,16,16,16,17,17,17,17,17,17,17,17,16]","31","956","482","false","20","20","black","1","false","1","1","1920","964","ArrowRight","staircase_motion","","","","","",""
"","","","","","html-keyboard-response","225","296775","0.0-5.0-1.0-1.0-3.0-1.0-0.0-0.0-2.10","null","","null","<p style='font-size: 60px; color: red'>错误!</p>","","","","","","","","","","","","","","","","","","","","","","","","","","","","","","","","","","","","","","","","","","","","","","","","",""
"","","","","","html-keyboard-response","226","297740","0.0-5.0-1.0-1.0-3.0-1.0-0.0-0.0-0.11","null","fixation","null","<p style='font-size: 48px; color: white'>+</p >","","","","","","","","","","","","","","","","","","","","","","","","","","","","","","","","","","","","","","","","","","","","","","","","",""
"","","","","","rdk","227","298848","0.0-5.0-1.0-1.0-3.0-1.0-0.0-0.0-1.11","650","motion_test","arrowright","","false","[""ArrowLeft"",""ArrowRight""]","ArrowLeft","-1","true","1","100","180","0.07","0","3","1","-1","2","300","300","[""white""]","[""hsl(0, 50%, 50%)"",""hsl(225, 50%, 50%)""]","0","0.5","0","circle","black","3","2","2","16.384615384615383","[8,10,17,17,17,17,16,17,18,15,18,17,16,17,18,16,17,16,17,17,17,16,16,18,16,18,16,17,16,17,17,16,18,16,17,17,16,17,17]","39","956","482","false","20","20","black","1","false","1","1","1920","964","ArrowLeft","staircase_motion","","","","","",""
"","","","","","html-keyboard-response","228","299810","0.0-5.0-1.0-1.0-3.0-1.0-0.0-0.0-2.11","null","","null","<p style='font-size: 60px; color: red'>错误!</p>","","","","","","","","","","","","","","","","","","","","","","","","","","","","","","","","","","","","","","","","","","","","","","","","",""
"","","","","","html-keyboard-response","229","302275","0.0-5.0-1.0-1.0-3.0-1.0-0.0-1.0","null","","null","<p style='font-size: 35px; color: white'>您的正确率为： 58% 。平均反应时为：498毫秒。</p>","","","","","","","","","","","","","","","","","","","","","","","","","","","","","","","","","","","","","","","","","","","","","","","","",""
"","","","","","html-keyboard-response","230","303243","0.0-5.0-1.0-1.0-3.0-2.0-0.0-0.0-0.0","null","fixation","null","<p style='font-size: 48px; color: white'>+</p >","","","","","","","","","","","","","","","","","","","","","","","","","","","","","","","","","","","","","","","","","","","","","","","","",""
"","","","","","rdk","231","304192","0.0-5.0-1.0-1.0-3.0-2.0-0.0-0.0-1.0","495","motion_test","arrowleft","","false","[""ArrowLeft"",""ArrowRight""]","ArrowRight","-1","true","1","100","0","0.1","0","3","1","-1","2","300","300","[""white""]","[""hsl(0, 50%, 50%)"",""hsl(225, 50%, 50%)""]","0","0.5","0","circle","black","3","2","2","16.366666666666667","[3,16,17,18,17,18,16,17,18,16,17,17,17,16,17,18,15,16,17,16,17,17,17,17,16,18,16,18,17,16]","30","956","482","false","20","20","black","1","false","1","1","1920","964","ArrowRight","staircase_motion","","","","","",""
"","","","","","html-keyboard-response","232","305160","0.0-5.0-1.0-1.0-3.0-2.0-0.0-0.0-2.0","null","","null","<p style='font-size: 60px; color: red'>错误!</p>","","","","","","","","","","","","","","","","","","","","","","","","","","","","","","","","","","","","","","","","","","","","","","","","",""
"","","","","","html-keyboard-response","233","306125","0.0-5.0-1.0-1.0-3.0-2.0-0.0-0.0-0.1","null","fixation","null","<p style='font-size: 48px; color: white'>+</p >","","","","","","","","","","","","","","","","","","","","","","","","","","","","","","","","","","","","","","","","","","","","","","","","",""
"","","","","","rdk","234","307040","0.0-5.0-1.0-1.0-3.0-2.0-0.0-0.0-1.1","460","motion_test","arrowleft","","false","[""ArrowLeft"",""ArrowRight""]","ArrowRight","-1","true","1","100","0","0.1","0","3","1","-1","2","300","300","[""white""]","[""hsl(0, 50%, 50%)"",""hsl(225, 50%, 50%)""]","0","0.5","0","circle","black","3","2","2","16.214285714285715","[3,16,16,17,18,16,17,17,17,16,17,16,17,17,17,17,17,17,16,17,16,17,17,16,17,17,16,17]","28","956","482","false","20","20","black","1","false","1","1","1920","964","ArrowRight","staircase_motion","","","","","",""
"","","","","","html-keyboard-response","235","308011","0.0-5.0-1.0-1.0-3.0-2.0-0.0-0.0-2.1","null","","null","<p style='font-size: 60px; color: red'>错误!</p>","","","","","","","","","","","","","","","","","","","","","","","","","","","","","","","","","","","","","","","","","","","","","","","","",""
"","","","","","html-keyboard-response","236","308964","0.0-5.0-1.0-1.0-3.0-2.0-0.0-0.0-0.2","null","fixation","null","<p style='font-size: 48px; color: white'>+</p >","","","","","","","","","","","","","","","","","","","","","","","","","","","","","","","","","","","","","","","","","","","","","","","","",""
"","","","","","rdk","237","309904","0.0-5.0-1.0-1.0-3.0-2.0-0.0-0.0-1.2","488","motion_test","arrowleft","","true","[""ArrowLeft"",""ArrowRight""]","ArrowLeft","-1","true","1","100","180","0.1","0","3","1","-1","2","300","300","[""white""]","[""hsl(0, 50%, 50%)"",""hsl(225, 50%, 50%)""]","0","0.5","0","circle","black","3","2","2","16.2","[1,16,16,17,17,17,18,16,17,17,17,16,17,17,17,16,17,16,17,17,16,16,18,16,17,18,17,16,17,16]","30","956","482","false","20","20","black","1","false","1","1","1920","964","ArrowLeft","staircase_motion","","","","","",""
"","","","","","html-keyboard-response","238","310877","0.0-5.0-1.0-1.0-3.0-2.0-0.0-0.0-2.2","null","","null","<p style='font-size: 60px; color: green'>正确!</p>","","","","","","","","","","","","","","","","","","","","","","","","","","","","","","","","","","","","","","","","","","","","","","","","",""
"","","","","","html-keyboard-response","239","311846","0.0-5.0-1.0-1.0-3.0-2.0-0.0-0.0-0.3","null","fixation","null","<p style='font-size: 48px; color: white'>+</p >","","","","","","","","","","","","","","","","","","","","","","","","","","","","","","","","","","","","","","","","","","","","","","","","",""
"","","","","","rdk","240","313137","0.0-5.0-1.0-1.0-3.0-2.0-0.0-0.0-1.3","826","motion_test","arrowright","","false","[""ArrowLeft"",""ArrowRight""]","ArrowLeft","-1","true","1","100","180","0.1","0","3","1","-1","2","300","300","[""white""]","[""hsl(0, 50%, 50%)"",""hsl(225, 50%, 50%)""]","0","0.5","0","circle","black","3","2","2","16.489795918367346","[6,15,17,17,16,17,16,17,18,16,17,16,17,16,17,16,18,17,16,17,15,17,16,17,17,17,17,17,16,17,18,17,17,17,16,17,17,16,17,17,17,17,16,16,17,17,17,17,17]","49","956","482","false","20","20","black","1","false","1","1","1920","964","ArrowLeft","staircase_motion","","","","","",""
