"success","timeout","failed_images","failed_audio","failed_video","trial_type","trial_index","time_elapsed","internal_node_id","rt","part","response","stimulus","correct","choices","correct_choice","trial_duration","response_ends_trial","number_of_apertures","number_of_dots","coherent_direction","coherence","opposite_coherence","dot_radius","dot_side_length","dot_life","move_distance","aperture_width","aperture_height","dot_color","dot_color_final","color_change_delay","target_color_proportion","motion_change_delay","dot_shape","background_color","RDK_type","aperture_type","reinsert_type","frame_rate","frame_rate_array","number_of_frames","aperture_center_x","aperture_center_y","fixation_cross","fixation_cross_width","fixation_cross_height","fixation_cross_color","fixation_cross_thickness","border","border_thickness","border_color","canvas_width","canvas_height","correct_response","data_label","task","difficulty","isMatch","association","label","task_type"
"true","false","[]","[]","[]","preload","0","112","0.0-0.0","","","","","","","","","","","","","","","","","","","","","","","","","","","","","","","","","","","","","","","","","","","","","","","","","","","","",""
"true","","","","","fullscreen","1","2355330","0.0-1.0","2353716","fullScreen","","","","","","","","","","","","","","","","","","","","","","","","","","","","","","","","","","","","","","","","","","","","","","","","","","",""
"","","","","","survey","2","2369243","0.0-2.0","13372","survey","{""sex"":""男"",""age"":22,""hands"":""右"",""color_blindness"":""都不是""}","","","","","","","","","","","","","","","","","","","","","","","","","","","","","","","","","","","","","","","","","","","","","","","","","",""
"","","","","","survey-text","3","2376799","0.0-3.0","7051","color_test","{""Q0"":""be""}","","","","","","","","","","","","","","","","","","","","","","","","","","","","","","","","","","","","","","","","","","","","","","","","","",""
"","","","","","html-keyboard-response","4","2380233","0.0-4.0","2945","instruction_beginning"," ","
      <div style=""text-align: left; color: white"">
        <h3 style=""text-align: center; font-size: 30px; margin: 0;"">欢迎参与本实验</h3>
          <p>为充分保障您的权利，请确保您已经知晓并同意《参与实验同意书》以及《数据公开知情同意书》，</p>
          <p>如果您未见过上述内容，请咨询实验员 ，</p>
          <p>如果您选择继续实验，则表示您已经清楚两份知情同意书的内容并同意 。</p>
          <p>在整个实验中，您需要完成三项任务，具体的任务要求会在后面说明 ，</p>
          <p>请按空格键进入实验</p >
      </div>","","","","","","","","","","","","","","","","","","","","","","","","","","","","","","","","","","","","","","","","","","","","","","","","",""
"","","","","","html-keyboard-response","5","2411769","0.0-5.0-0.0","31046","instruction_getThreshold"," ","
    <div style=""text-align: left; color: white; padding: 10px""> 
      <h3 style=""text-align: center; font-size: 30px; margin: 10px"">欢迎进入实验！请仔细阅读以下文字</h3>
      <p>在正式开始前，我们将通过一个快速测试为您制定合适的难度水平。<p>
      <p>接下来，屏幕上会呈现一些运动的彩色圆点，</p>
      <p>如果任务要求您<span style=""font-weight: bold"">判断散点图的一致运动方向</span><p>
      <p>您需要<span style=""font-weight: bold"">忽略点的颜色</span>并判断一致的运动方向是向左还是向右:</p >
      <ul>
        <li><span style=""font-weight: bold"">向左</span>，请按<span style=""font-weight: bold"">键盘左键 <— </span></li>
        <li><span style=""font-weight: bold"">向右</span>，请按<span style=""font-weight: bold"">键盘右键 —> </span> </li>
      </ul>
      <p>如果任务要求您<span style=""font-weight: bold"">判断散点图的整体颜色（即大多数点的颜色）是红色还是蓝色</span><p>
      <p>您需要<span style=""font-weight: bold"">忽略点的运动方向</span>并判断整体颜色:</p >
      <ul>
          <li>整体为 <span style=""color: hsl(0, 50%, 50%)"">红色</span>，请按键盘 <span style=""color: hsl(0, 50%, 50%)"">""D"" 键</span></li>
          <li>整体为 <span style=""color: hsl(225, 50%, 50%)"">蓝色</span>，请按键盘 <span style=""color: hsl(225, 50%, 50%)"">""k"" 键</span> </li>
        </ul>
      <p>如有疑问请向主试咨询，没有则按下空格键开始</p>
    </div>","","","","","","","","","","","","","","","","","","","","","","","","","","","","","","","","","","","","","","","","","","","","","","","","",""
"","","","","","html-keyboard-response","6","2417672","0.0-5.0-1.0-0.0-0.0","5417","instruction_taskSeparate"," ","
    <div style=""text-align: left; color: white; padding: 10px""> 
      <p>现在是运动方向判断</p>
      <p>您需要<span style=""font-weight: bold"">忽略点的颜色</span>并判断一致的运动方向是向左还是向右:</p >
        <ul>
          <li><span style=""font-weight: bold"">向左</span>，请按键盘 <span style=""font-weight: bold"">左键</span></li>
          <li><span style=""font-weight: bold"">向右</span>，请按键盘 <span style=""font-weight: bold"">右键</span> </li>
        </ul>
      <p>准备好后请按空格键开始</p>
    </div>","","","","","","","","","","","","","","","","","","","","","","","","","","","","","","","","","","","","","","","","","","","","","","","","",""
"","","","","","html-keyboard-response","7","2418669","0.0-5.0-1.0-0.0-1.0-0.0-0.0-0.0-0.0","null","fixation","null","<p style='font-size: 48px; color: white'>+</p >","","","","","","","","","","","","","","","","","","","","","","","","","","","","","","","","","","","","","","","","","","","","","","","","",""
"","","","","","rdk","8","2440120","0.0-5.0-1.0-0.0-1.0-0.0-0.0-0.0-1.0","20962","motion_test","arrowleft","","true","[""ArrowLeft"",""ArrowRight""]","ArrowLeft","-1","true","1","100","180","0.1","0","3","1","-1","2","300","300","[""white""]","[""hsl(0, 50%, 50%)"",""hsl(225, 50%, 50%)""]","0","0.5","0","circle","black","3","2","2","16.89825119236884","[6,17,17,17,17,17,17,16,17,17,17,17,17,17,17,17,17,17,17,17,17,17,16,17,17,17,17,16,17,17,17,16,17,17,17,17,17,17,17,17,17,17,17,16,16,17,17,17,16,17,16,17,17,16,17,17,17,17,16,17,17,17,17,17,17,17,17,17,17,17,17,17,17,17,17,17,17,17,17,17,17,17,17,17,16,17,17,17,17,17,17,17,17,17,17,17,17,16,17,17,17,17,17,17,17,17,17,17,17,16,17,17,17,17,16,17,17,17,17,17,17,17,17,17,17,17,16,17,17,17,17,16,17,17,17,17,17,17,17,17,17,17,16,17,17,17,17,17,17,17,17,17,17,17,17,17,17,17,17,17,17,17,17,17,17,17,17,17,17,17,17,17,17,17,17,17,17,17,17,17,17,17,17,17,17,17,17,17,17,16,17,17,17,17,17,17,17,17,17,17,17,17,17,17,17,17,17,16,17,17,17,17,17,17,17,17,17,17,17,17,17,17,17,17,17,17,17,17,17,17,17,17,17,17,17,17,17,17,16,17,17,17,17,17,17,17,17,17,17,17,17,17,17,17,17,16,17,17,17,17,17,17,16,17,17,17,17,17,17,17,17,17,17,17,16,16,16,17,17,17,17,17,17,17,17,17,17,17,17,17,17,17,17,17,17,17,17,17,17,17,17,17,17,17,17,17,17,17,17,16,17,17,17,17,17,17,17,17,17,17,17,17,17,17,17,17,17,17,17,17,17,17,17,17,17,17,17,17,17,17,17,17,17,17,17,17,17,17,17,17,17,17,17,17,17,17,16,17,17,16,17,17,17,17,16,16,17,17,17,17,17,17,17,17,16,17,17,17,17,17,17,17,17,16,16,17,17,17,17,17,17,17,17,17,16,17,17,17,17,17,17,17,17,17,17,17,17,17,17,17,17,17,17,17,17,17,17,17,17,17,17,17,17,17,17,17,17,17,17,17,17,17,16,17,17,17,17,17,17,17,17,17,16,17,17,17,17,17,17,17,17,17,17,17,17,17,17,17,17,17,17,17,17,16,17,17,17,17,17,17,17,17,16,16,17,17,17,16,17,17,17,16,17,17,17,17,17,17,17,17,17,16,17,17,17,17,17,17,17,17,17,17,17,16,17,17,17,17,17,17,17,17,16,17,16,17,17,17,16,17,17,17,17,17,16,17,17,17,17,17,17,16,17,17,17,17,17,17,17,17,17,17,17,17,17,17,16,17,17,16,17,17,17,17,17,17,17,17,17,17,16,17,17,17,17,17,17,17,17,17,17,17,17,17,17,17,17,17,17,17,17,17,17,17,17,16,17,17,17,17,17,17,17,17,17,17,17,17,17,16,17,17,17,17,17,17,17,17,17,17,17,17,17,17,16,17,17,17,17,17,17,17,17,17,16,17,17,17,17,17,17,17,17,17,16,17,17,17,17,17,17,17,17,16,17,17,16,17,17,17,16,17,17,17,17,17,17,16,17,17,17,17,17,17,17,17,17,17,17,17,17,17,17,17,17,16,17,17,17,17,17,17,17,17,17,17,17,17,17,17,16,17,17,17,17,17,17,17,17,17,17,17,16,17,17,17,17,17,17,17,17,17,17,17,16,17,17,17,17,17,17,16,17,17,17,17,17,17,17,17,17,17,17,17,17,17,16,17,17,17,16,17,17,17,16,17,17,17,17,17,17,17,17,17,16,17,17,17,17,16,17,17,17,17,16,17,17,17,17,17,17,17,17,17,17,17,17,17,17,17,17,16,17,17,17,17,16,17,17,17,17,17,17,17,17,17,17,17,17,17,17,17,17,16,17,17,17,17,17,17,17,17,17,17,17,17,17,17,17,17,17,17,17,17,17,17,16,17,17,17,17,17,17,17,17,17,17,17,17,17,17,16,17,16,17,17,17,17,17,17,17,16,17,17,17,16,17,17,17,17,17,17,16,17,16,17,17,17,17,17,17,17,16,17,17,16,16,17,17,17,17,17,17,17,17,16,17,17,17,17,16,17,17,17,17,17,17,17,17,16,17,17,17,17,17,17,17,17,17,17,17,17,17,17,17,17,17,17,16,17,16,17,17,17,17,17,17,17,17,17,17,17,17,17,17,17,17,17,17,17,17,17,17,17,17,17,17,17,17,17,17,17,17,17,17,17,17,17,17,17,17,17,17,17,17,17,17,17,17,17,17,17,17,17,17,17,17,17,16,17,17,17,17,16,17,16,17,17,17,17,16,17,17,17,17,17,17,17,17,17,17,17,17,17,17,17,17,17,17,17,16,17,17,17,17,16,17,17,17,17,17,17,17,17,17,17,17,17,17,17,17,17,17,17,17,17,17,17,16,17,17,17,17,17,17,17,17,16,17,16,17,17,17,17,16,17,17,17,17,17,17,17,17,16,17,17,17,17,17,17,17,16,17,17,17,17,16,17,17,17,16,17,17,17,17,17,17,17,17,17,17,17,17,17,17,16,17,17,17,17,17,17,17,17,17,16,17,17,17,17,17,17,17,17,17,17,17,17,17,17,16,17,17,17,16,17,17,17,17,17,17,17,17,17,17,17,17,17,17,17,17,17,17,17,17,17,17,17,16,17,17,17,17,17,17,17,17,17,17,17,17,17,17,17,17,17,17,17,16,17,17,16,17,17,17,17,17,17,17,17,17,17,17,17,17,17,17,17,16,17,17,17,17,17,17,17,16,17,17,17,17,17,17,17,16,17,17,17,17,17,17,17,17,17,17,17,17,17,17,17,16,17,17,17,17,16,17,17,17,17,17,17,17,17,17,17,17,17,17,17,17,17,17,17,17,17,16,17,17,17,17,17,17,17,17,16,17,17]","1258","956","478","false","20","20","black","1","false","1","1","1920","956","ArrowLeft","staircase_motion","","","","","",""
"","","","","","html-keyboard-response","9","2441118","0.0-5.0-1.0-0.0-1.0-0.0-0.0-0.0-2.0","null","","null","<p style='font-size: 60px; color: green'>正确!</p>","","","","","","","","","","","","","","","","","","","","","","","","","","","","","","","","","","","","","","","","","","","","","","","","",""
"","","","","","html-keyboard-response","10","2442119","0.0-5.0-1.0-0.0-1.0-0.0-0.0-0.0-0.1","null","fixation","null","<p style='font-size: 48px; color: white'>+</p >","","","","","","","","","","","","","","","","","","","","","","","","","","","","","","","","","","","","","","","","","","","","","","","","",""
"","","","","","rdk","11","2444360","0.0-5.0-1.0-0.0-1.0-0.0-0.0-0.0-1.1","1756","motion_test","arrowright","","true","[""ArrowLeft"",""ArrowRight""]","ArrowRight","-1","true","1","100","0","0.1","0","3","1","-1","2","300","300","[""white""]","[""hsl(0, 50%, 50%)"",""hsl(225, 50%, 50%)""]","0","0.5","0","circle","black","3","2","2","16.847619047619048","[10,17,17,17,17,17,16,17,17,17,17,17,17,17,17,17,17,17,17,17,17,17,17,16,17,17,17,17,17,16,17,17,17,17,17,17,17,17,17,17,17,17,17,17,17,17,17,17,17,17,17,17,17,17,17,17,17,17,17,17,17,17,17,17,17,17,17,17,17,17,17,16,17,17,17,17,17,17,17,17,17,17,17,16,17,17,17,17,17,16,17,17,17,17,17,17,16,17,17,17,17,17,16,17,16]","105","956","478","false","20","20","black","1","false","1","1","1920","956","ArrowRight","staircase_motion","","","","","",""
"","","","","","html-keyboard-response","12","2445351","0.0-5.0-1.0-0.0-1.0-0.0-0.0-0.0-2.1","null","","null","<p style='font-size: 60px; color: green'>正确!</p>","","","","","","","","","","","","","","","","","","","","","","","","","","","","","","","","","","","","","","","","","","","","","","","","",""
"","","","","","html-keyboard-response","13","2446352","0.0-5.0-1.0-0.0-1.0-0.0-0.0-0.0-0.2","null","fixation","null","<p style='font-size: 48px; color: white'>+</p >","","","","","","","","","","","","","","","","","","","","","","","","","","","","","","","","","","","","","","","","","","","","","","","","",""
"","","","","","rdk","14","2450584","0.0-5.0-1.0-0.0-1.0-0.0-0.0-0.0-1.2","3746","motion_test","arrowright","","true","[""ArrowLeft"",""ArrowRight""]","ArrowRight","-1","true","1","100","0","0.1","0","3","1","-1","2","300","300","[""white""]","[""hsl(0, 50%, 50%)"",""hsl(225, 50%, 50%)""]","0","0.5","0","circle","black","3","2","2","16.875555555555554","[10,17,17,17,16,17,17,17,17,17,17,17,17,17,16,17,17,17,17,16,17,17,17,17,17,17,16,17,17,17,17,17,17,17,17,17,17,16,17,17,17,17,17,17,17,17,16,17,17,17,17,17,17,17,17,17,16,17,17,17,17,17,17,17,17,17,17,17,17,17,17,17,17,17,17,17,17,17,16,17,17,17,17,17,17,17,17,17,17,17,17,17,17,17,16,17,17,17,17,17,16,17,17,17,17,17,17,16,17,17,17,17,17,17,17,17,17,17,16,17,17,17,17,17,17,17,16,17,17,17,17,16,17,17,16,17,17,17,17,17,17,16,17,17,17,17,17,17,17,17,17,17,17,17,17,18,15,17,17,17,17,17,17,17,17,17,17,16,17,17,17,17,17,17,17,17,17,17,17,17,17,17,17,17,17,17,17,17,17,17,17,17,17,16,17,16,17,17,17,17,17,17,17,17,17,17,17,17,17,17,17,17,17,17,17,17,17,17,17,17,17,17,17,16,17]","225","956","478","false","20","20","black","1","false","1","1","1920","956","ArrowRight","staircase_motion","","","","","",""
"","","","","","html-keyboard-response","15","2451586","0.0-5.0-1.0-0.0-1.0-0.0-0.0-0.0-2.2","null","","null","<p style='font-size: 60px; color: green'>正确!</p>","","","","","","","","","","","","","","","","","","","","","","","","","","","","","","","","","","","","","","","","","","","","","","","","",""
"","","","","","html-keyboard-response","16","2452584","0.0-5.0-1.0-0.0-1.0-0.0-0.0-0.0-0.3","null","fixation","null","<p style='font-size: 48px; color: white'>+</p >","","","","","","","","","","","","","","","","","","","","","","","","","","","","","","","","","","","","","","","","","","","","","","","","",""
"","","","","","rdk","17","2454455","0.0-5.0-1.0-0.0-1.0-0.0-0.0-0.0-1.3","1385","motion_test","arrowleft","","true","[""ArrowLeft"",""ArrowRight""]","ArrowLeft","-1","true","1","100","180","0.1","0","3","1","-1","2","300","300","[""white""]","[""hsl(0, 50%, 50%)"",""hsl(225, 50%, 50%)""]","0","0.5","0","circle","black","3","2","2","16.89156626506024","[11,17,17,17,17,17,17,17,17,17,17,17,16,17,17,17,17,17,17,17,17,17,17,17,17,17,17,17,17,17,17,17,17,16,17,17,17,17,17,17,17,17,17,17,17,17,17,17,17,17,17,17,17,17,17,17,17,17,17,17,17,17,17,17,17,17,17,17,17,17,17,17,17,17,17,17,17,17,17,17,17,17,16]","83","956","478","false","20","20","black","1","false","1","1","1920","956","ArrowLeft","staircase_motion","","","","","",""
"","","","","","html-keyboard-response","18","2455451","0.0-5.0-1.0-0.0-1.0-0.0-0.0-0.0-2.3","null","","null","<p style='font-size: 60px; color: green'>正确!</p>","","","","","","","","","","","","","","","","","","","","","","","","","","","","","","","","","","","","","","","","","","","","","","","","",""
"","","","","","html-keyboard-response","19","2456452","0.0-5.0-1.0-0.0-1.0-0.0-0.0-0.0-0.4","null","fixation","null","<p style='font-size: 48px; color: white'>+</p >","","","","","","","","","","","","","","","","","","","","","","","","","","","","","","","","","","","","","","","","","","","","","","","","",""
"","","","","","rdk","20","2461240","0.0-5.0-1.0-0.0-1.0-0.0-0.0-0.0-1.4","4302","motion_test","arrowleft","","true","[""ArrowLeft"",""ArrowRight""]","ArrowLeft","-1","true","1","100","180","0.1","0","3","1","-1","2","300","300","[""white""]","[""hsl(0, 50%, 50%)"",""hsl(225, 50%, 50%)""]","0","0.5","0","circle","black","3","2","2","16.88372093023256","[9,17,17,17,17,17,16,17,17,17,16,17,16,17,17,17,17,17,17,17,17,17,17,17,17,17,17,17,17,17,17,17,17,17,16,17,17,17,17,17,17,17,17,17,17,17,17,16,17,17,17,17,17,17,17,17,17,17,16,17,17,17,17,17,17,17,17,17,17,16,17,17,17,17,17,17,17,17,17,16,17,17,17,17,17,17,17,17,17,17,17,17,17,17,17,16,17,17,17,17,17,17,17,17,17,17,17,17,17,17,17,17,17,17,16,17,17,17,17,17,17,17,17,17,16,17,17,17,17,17,17,17,16,17,17,16,17,17,17,17,17,17,17,17,17,17,16,17,17,17,17,17,17,17,17,17,17,16,17,17,17,17,17,17,17,17,17,17,17,17,17,17,17,17,17,17,17,17,17,17,17,17,17,17,17,17,17,16,17,17,17,16,17,17,17,17,17,17,17,17,17,17,17,17,16,17,17,16,17,17,17,17,17,17,17,17,17,17,17,17,17,17,17,17,17,17,17,17,17,17,16,17,17,17,17,17,17,17,17,17,16,17,17,17,17,17,17,17,17,17,16,17,17,17,17,17,17,17]","258","956","478","false","20","20","black","1","false","1","1","1920","956","ArrowLeft","staircase_motion","","","","","",""
"","","","","","html-keyboard-response","21","2462234","0.0-5.0-1.0-0.0-1.0-0.0-0.0-0.0-2.4","null","","null","<p style='font-size: 60px; color: green'>正确!</p>","","","","","","","","","","","","","","","","","","","","","","","","","","","","","","","","","","","","","","","","","","","","","","","","",""
"","","","","","html-keyboard-response","22","2463234","0.0-5.0-1.0-0.0-1.0-0.0-0.0-0.0-0.5","null","fixation","null","<p style='font-size: 48px; color: white'>+</p >","","","","","","","","","","","","","","","","","","","","","","","","","","","","","","","","","","","","","","","","","","","","","","","","",""
"","","","","","rdk","23","2465671","0.0-5.0-1.0-0.0-1.0-0.0-0.0-0.0-1.5","1950","motion_test","arrowright","","true","[""ArrowLeft"",""ArrowRight""]","ArrowRight","-1","true","1","100","0","0.1","0","3","1","-1","2","300","300","[""white""]","[""hsl(0, 50%, 50%)"",""hsl(225, 50%, 50%)""]","0","0.5","0","circle","black","3","2","2","16.846153846153847","[10,17,17,17,16,17,16,17,17,17,17,17,17,17,17,16,17,17,16,17,17,17,17,17,17,16,17,17,17,17,16,17,17,17,17,17,17,17,17,17,17,17,17,17,17,17,17,17,16,17,17,17,17,17,17,17,17,17,17,17,17,17,17,17,17,17,17,17,17,17,17,17,17,17,17,17,16,17,17,17,17,16,17,17,17,17,17,17,17,17,17,17,17,17,17,16,17,17,17,17,17,17,17,17,17,17,16,17,17,17,17,17,17,17,17,17,17]","117","956","478","false","20","20","black","1","false","1","1","1920","956","ArrowRight","staircase_motion","","","","","",""
"","","","","","html-keyboard-response","24","2466668","0.0-5.0-1.0-0.0-1.0-0.0-0.0-0.0-2.5","null","","null","<p style='font-size: 60px; color: green'>正确!</p>","","","","","","","","","","","","","","","","","","","","","","","","","","","","","","","","","","","","","","","","","","","","","","","","",""
"","","","","","html-keyboard-response","25","2467668","0.0-5.0-1.0-0.0-1.0-0.0-0.0-0.0-0.6","null","fixation","null","<p style='font-size: 48px; color: white'>+</p >","","","","","","","","","","","","","","","","","","","","","","","","","","","","","","","","","","","","","","","","","","","","","","","","",""
"","","","","","rdk","26","2469702","0.0-5.0-1.0-0.0-1.0-0.0-0.0-0.0-1.6","1548","motion_test","arrowright","","true","[""ArrowLeft"",""ArrowRight""]","ArrowRight","-1","true","1","100","0","0.1","0","3","1","-1","2","300","300","[""white""]","[""hsl(0, 50%, 50%)"",""hsl(225, 50%, 50%)""]","0","0.5","0","circle","black","3","2","2","16.827956989247312","[10,16,17,17,17,17,16,17,17,17,17,17,17,17,17,17,17,17,17,17,17,17,17,17,17,17,17,17,17,17,17,17,17,17,17,17,17,17,17,17,17,17,17,17,17,17,17,17,17,17,16,17,17,17,17,17,17,16,17,17,17,17,17,17,17,17,17,17,17,17,17,17,17,16,17,17,17,17,16,17,17,17,17,17,17,17,17,17,16,17,17,16,16]","93","956","478","false","20","20","black","1","false","1","1","1920","956","ArrowRight","staircase_motion","","","","","",""
"","","","","","html-keyboard-response","27","2470702","0.0-5.0-1.0-0.0-1.0-0.0-0.0-0.0-2.6","null","","null","<p style='font-size: 60px; color: green'>正确!</p>","","","","","","","","","","","","","","","","","","","","","","","","","","","","","","","","","","","","","","","","","","","","","","","","",""
"","","","","","html-keyboard-response","28","2471702","0.0-5.0-1.0-0.0-1.0-0.0-0.0-0.0-0.7","null","fixation","null","<p style='font-size: 48px; color: white'>+</p >","","","","","","","","","","","","","","","","","","","","","","","","","","","","","","","","","","","","","","","","","","","","","","","","",""
"","","","","","rdk","29","2475289","0.0-5.0-1.0-0.0-1.0-0.0-0.0-0.0-1.7","3101","motion_test","arrowleft","","true","[""ArrowLeft"",""ArrowRight""]","ArrowLeft","-1","true","1","100","180","0.1","0","3","1","-1","2","300","300","[""white""]","[""hsl(0, 50%, 50%)"",""hsl(225, 50%, 50%)""]","0","0.5","0","circle","black","3","2","2","16.887096774193548","[9,17,17,17,17,17,17,17,17,17,17,17,17,16,17,17,17,17,17,17,17,17,17,17,17,16,17,17,17,17,17,17,16,17,17,17,17,17,16,17,17,17,16,17,17,17,17,17,17,17,16,17,17,17,17,17,17,17,17,16,17,17,17,17,17,17,17,17,17,17,17,17,17,17,16,17,17,17,17,17,17,17,17,17,17,17,17,17,17,17,17,16,17,17,17,17,17,17,17,16,17,17,17,17,17,17,17,16,17,17,17,17,17,17,17,17,17,17,17,17,17,17,17,17,17,17,17,17,17,17,17,17,17,17,17,17,17,17,17,17,17,17,17,17,17,17,17,17,17,17,17,17,17,17,17,17,17,17,17,17,17,17,17,17,17,17,17,17,17,16,17,17,17,17,17,16,17,17,17,17,17,17,17,17,17,17]","186","956","478","false","20","20","black","1","false","1","1","1920","956","ArrowLeft","staircase_motion","","","","","",""
"","","","","","html-keyboard-response","30","2476285","0.0-5.0-1.0-0.0-1.0-0.0-0.0-0.0-2.7","null","","null","<p style='font-size: 60px; color: green'>正确!</p>","","","","","","","","","","","","","","","","","","","","","","","","","","","","","","","","","","","","","","","","","","","","","","","","",""
"","","","","","html-keyboard-response","31","2477285","0.0-5.0-1.0-0.0-1.0-0.0-0.0-0.0-0.8","null","fixation","null","<p style='font-size: 48px; color: white'>+</p >","","","","","","","","","","","","","","","","","","","","","","","","","","","","","","","","","","","","","","","","","","","","","","","","",""
"","","","","","rdk","32","2479671","0.0-5.0-1.0-0.0-1.0-0.0-0.0-0.0-1.8","1900","motion_test","arrowleft","","false","[""ArrowLeft"",""ArrowRight""]","ArrowRight","-1","true","1","100","0","0.1","0","3","1","-1","2","300","300","[""white""]","[""hsl(0, 50%, 50%)"",""hsl(225, 50%, 50%)""]","0","0.5","0","circle","black","3","2","2","16.82456140350877","[11,17,17,17,17,16,17,17,17,17,17,17,17,17,17,16,17,17,17,17,17,17,17,16,17,17,17,17,17,17,16,17,17,16,17,17,17,16,17,17,17,17,17,17,17,17,17,17,17,17,17,17,17,17,17,17,17,17,17,17,17,17,17,17,16,17,17,17,17,17,17,17,17,17,17,17,16,17,17,17,17,17,17,17,16,17,17,17,17,17,17,17,16,17,16,17,17,17,17,16,17,17,17,17,16,17,17,17,17,17,17,17,16,17]","114","956","478","false","20","20","black","1","false","1","1","1920","956","ArrowRight","staircase_motion","","","","","",""
"","","","","","html-keyboard-response","33","2480666","0.0-5.0-1.0-0.0-1.0-0.0-0.0-0.0-2.8","null","","null","<p style='font-size: 60px; color: red'>错误!</p>","","","","","","","","","","","","","","","","","","","","","","","","","","","","","","","","","","","","","","","","","","","","","","","","",""
"","","","","","html-keyboard-response","34","2481668","0.0-5.0-1.0-0.0-1.0-0.0-0.0-0.0-0.9","null","fixation","null","<p style='font-size: 48px; color: white'>+</p >","","","","","","","","","","","","","","","","","","","","","","","","","","","","","","","","","","","","","","","","","","","","","","","","",""
"","","","","","rdk","35","2487224","0.0-5.0-1.0-0.0-1.0-0.0-0.0-0.0-1.9","5068","motion_test","arrowright","","false","[""ArrowLeft"",""ArrowRight""]","ArrowLeft","-1","true","1","100","180","0.1","0","3","1","-1","2","300","300","[""white""]","[""hsl(0, 50%, 50%)"",""hsl(225, 50%, 50%)""]","0","0.5","0","circle","black","3","2","2","16.848684210526315","[7,17,17,17,17,17,17,17,17,17,17,17,17,17,17,17,17,17,17,17,17,17,17,17,17,17,17,17,17,17,16,17,17,17,17,17,17,17,17,16,17,17,17,17,17,16,16,17,17,16,17,17,17,17,17,17,17,17,17,17,17,17,17,17,17,17,17,17,17,17,17,17,17,17,17,16,17,17,16,17,17,17,17,16,17,17,17,16,16,17,17,17,17,17,17,16,17,17,17,17,17,17,17,16,17,17,17,17,17,17,17,17,17,17,16,17,17,17,16,17,17,17,17,17,17,17,17,16,17,17,17,17,17,17,16,17,17,17,17,17,16,17,17,17,17,16,17,17,16,17,17,17,17,17,17,17,17,17,17,17,17,16,17,17,17,16,17,17,17,17,17,16,17,17,17,17,16,17,16,18,16,17,17,17,16,17,16,17,17,17,17,16,17,17,17,17,17,17,17,17,17,17,17,17,17,17,17,17,17,17,17,17,16,17,17,16,17,17,17,17,17,17,17,17,17,16,16,17,17,17,17,17,17,17,17,17,17,17,17,17,16,17,17,17,17,17,17,17,17,17,17,17,17,16,17,16,17,17,17,17,17,17,17,17,17,17,17,17,17,17,16,17,17,17,17,17,17,17,17,17,17,17,17,17,16,17,17,17,17,17,17,17,17,17,17,17,17,17,17,17,17,17,17,17]","304","956","478","false","20","20","black","1","false","1","1","1920","956","ArrowLeft","staircase_motion","","","","","",""
"","","","","","html-keyboard-response","36","2488217","0.0-5.0-1.0-0.0-1.0-0.0-0.0-0.0-2.9","null","","null","<p style='font-size: 60px; color: red'>错误!</p>","","","","","","","","","","","","","","","","","","","","","","","","","","","","","","","","","","","","","","","","","","","","","","","","",""
"","","","","","html-keyboard-response","37","2489219","0.0-5.0-1.0-0.0-1.0-0.0-0.0-0.0-0.10","null","fixation","null","<p style='font-size: 48px; color: white'>+</p >","","","","","","","","","","","","","","","","","","","","","","","","","","","","","","","","","","","","","","","","","","","","","","","","",""
"","","","","","rdk","38","2497895","0.0-5.0-1.0-0.0-1.0-0.0-0.0-0.0-1.10","8189","motion_test","arrowright","","false","[""ArrowLeft"",""ArrowRight""]","ArrowLeft","-1","true","1","100","180","0.1","0","3","1","-1","2","300","300","[""white""]","[""hsl(0, 50%, 50%)"",""hsl(225, 50%, 50%)""]","0","0.5","0","circle","black","3","2","2","16.877800407331975","[9,17,17,16,17,17,17,17,17,17,16,17,16,17,17,17,17,17,17,17,17,17,17,17,16,17,17,17,17,17,17,17,17,17,17,17,17,17,17,16,17,17,17,17,17,16,17,17,17,17,17,17,17,16,17,17,17,17,17,17,17,17,17,17,17,17,17,17,17,17,16,17,17,17,17,17,17,17,17,17,17,17,16,17,17,17,17,17,17,17,17,17,16,17,17,17,17,17,17,17,17,17,16,17,17,17,17,17,17,17,17,17,17,17,17,17,17,17,16,17,17,16,17,17,17,17,17,17,17,17,17,17,17,17,17,17,17,17,17,17,17,17,17,17,17,17,17,17,17,17,17,17,17,17,17,17,16,17,17,17,17,17,17,17,16,17,17,17,17,17,17,16,17,17,17,17,17,17,17,17,16,17,17,17,17,17,17,17,17,17,17,17,17,16,17,17,17,16,17,17,17,17,17,17,16,17,17,16,17,17,17,17,17,17,16,17,16,17,17,16,17,17,17,17,17,17,16,17,17,17,17,17,16,17,17,17,17,17,17,17,17,17,17,17,17,17,17,17,17,16,17,17,17,17,17,17,17,17,17,16,17,17,16,17,17,17,17,17,17,17,17,17,17,16,17,17,17,17,16,17,17,17,17,17,17,16,17,17,17,17,17,17,17,17,17,17,17,17,17,17,17,17,17,17,16,17,17,17,17,17,17,17,17,17,17,17,17,17,17,17,17,17,17,17,17,17,17,16,17,17,17,17,17,17,16,17,17,17,17,17,17,17,17,16,17,17,17,17,17,17,17,16,17,17,17,17,17,17,17,17,17,17,17,17,16,17,17,17,17,17,17,17,17,17,17,17,17,17,17,17,16,17,17,17,17,17,17,17,17,17,17,17,17,17,17,17,17,17,17,16,17,17,17,17,17,17,17,16,17,17,17,17,17,17,17,16,17,17,17,17,17,17,16,16,17,17,17,17,17,17,17,17,17,16,17,17,16,17,17,17,17,17,17,16,17,17,17,17,17,16,17,17,17,17,17,17,17,17,17,17,17,17,17,17,17,17,17,17,17,16,17,17,17,17,17,17,17,17,17,16,17,17,16,17,17,17,17,17,17,17,16]","491","956","478","false","20","20","black","1","false","1","1","1920","956","ArrowLeft","staircase_motion","","","","","",""
"","","","","","html-keyboard-response","39","2498884","0.0-5.0-1.0-0.0-1.0-0.0-0.0-0.0-2.10","null","","null","<p style='font-size: 60px; color: red'>错误!</p>","","","","","","","","","","","","","","","","","","","","","","","","","","","","","","","","","","","","","","","","","","","","","","","","",""
"","","","","","html-keyboard-response","40","2499884","0.0-5.0-1.0-0.0-1.0-0.0-0.0-0.0-0.11","null","fixation","null","<p style='font-size: 48px; color: white'>+</p >","","","","","","","","","","","","","","","","","","","","","","","","","","","","","","","","","","","","","","","","","","","","","","","","",""
"","","","","","rdk","41","2503543","0.0-5.0-1.0-0.0-1.0-0.0-0.0-0.0-1.11","3171","motion_test","arrowright","","true","[""ArrowLeft"",""ArrowRight""]","ArrowRight","-1","true","1","100","0","0.1","0","3","1","-1","2","300","300","[""white""]","[""hsl(0, 50%, 50%)"",""hsl(225, 50%, 50%)""]","0","0.5","0","circle","black","3","2","2","16.889473684210525","[10,17,17,17,17,17,17,16,17,17,17,17,17,17,17,17,17,17,17,17,17,17,17,17,17,17,17,17,17,17,17,17,17,17,17,17,17,17,17,17,16,17,17,17,17,17,17,17,17,17,17,17,17,17,17,17,17,17,17,17,17,17,17,17,17,17,16,17,17,17,17,17,17,17,17,17,17,17,17,17,17,17,17,17,17,16,17,17,17,17,17,17,17,17,17,17,17,17,17,17,17,17,17,17,17,17,17,17,17,17,17,17,17,17,17,16,17,17,16,17,17,17,17,17,17,17,17,17,17,17,17,17,17,17,17,17,17,17,17,16,17,17,17,17,16,17,17,17,17,17,17,17,17,16,17,16,16,17,17,17,17,17,17,16,17,17,17,17,16,17,17,17,17,17,17,17,17,17,17,17,17,17,17,17,17,17,17,17,17,16]","190","956","478","false","20","20","black","1","false","1","1","1920","956","ArrowRight","staircase_motion","","","","","",""
"","","","","","html-keyboard-response","42","2504535","0.0-5.0-1.0-0.0-1.0-0.0-0.0-0.0-2.11","null","","null","<p style='font-size: 60px; color: green'>正确!</p>","","","","","","","","","","","","","","","","","","","","","","","","","","","","","","","","","","","","","","","","","","","","","","","","",""
"","","","","","html-keyboard-response","43","2507035","0.0-5.0-1.0-0.0-1.0-0.0-0.0-1.0","null","","null","<p style='font-size: 35px; color: white'>您的正确率为： 75% 。平均反应时为：4757毫秒。</p>","","","","","","","","","","","","","","","","","","","","","","","","","","","","","","","","","","","","","","","","","","","","","","","","",""
"","","","","","html-keyboard-response","44","2508034","0.0-5.0-1.0-0.0-1.0-1.0-0.0-0.0-0.0","null","fixation","null","<p style='font-size: 48px; color: white'>+</p >","","","","","","","","","","","","","","","","","","","","","","","","","","","","","","","","","","","","","","","","","","","","","","","","",""
"","","","","","rdk","45","2510024","0.0-5.0-1.0-0.0-1.0-1.0-0.0-0.0-1.0","1503","motion_test","arrowleft","","true","[""ArrowLeft"",""ArrowRight""]","ArrowLeft","-1","true","1","100","180","0.07","0","3","1","-1","2","300","300","[""white""]","[""hsl(0, 50%, 50%)"",""hsl(225, 50%, 50%)""]","0","0.5","0","circle","black","3","2","2","16.81111111111111","[10,16,17,17,17,17,17,17,16,17,17,16,17,17,17,17,17,17,17,17,17,16,16,17,17,17,17,17,17,17,17,17,17,17,17,16,17,17,17,17,17,17,17,17,17,16,17,17,17,17,17,17,17,17,17,16,17,17,17,17,17,17,17,17,17,17,17,17,17,17,17,17,17,17,17,16,17,17,16,17,17,17,17,17,17,17,17,17,17,17]","90","956","478","false","20","20","black","1","false","1","1","1920","956","ArrowLeft","staircase_motion","","","","","",""
"","","","","","html-keyboard-response","46","2511017","0.0-5.0-1.0-0.0-1.0-1.0-0.0-0.0-2.0","null","","null","<p style='font-size: 60px; color: green'>正确!</p>","","","","","","","","","","","","","","","","","","","","","","","","","","","","","","","","","","","","","","","","","","","","","","","","",""
"","","","","","html-keyboard-response","47","2512019","0.0-5.0-1.0-0.0-1.0-1.0-0.0-0.0-0.1","null","fixation","null","<p style='font-size: 48px; color: white'>+</p >","","","","","","","","","","","","","","","","","","","","","","","","","","","","","","","","","","","","","","","","","","","","","","","","",""
"","","","","","rdk","48","2517272","0.0-5.0-1.0-0.0-1.0-1.0-0.0-0.0-1.1","4768","motion_test","arrowright","","false","[""ArrowLeft"",""ArrowRight""]","ArrowLeft","-1","true","1","100","180","0.07","0","3","1","-1","2","300","300","[""white""]","[""hsl(0, 50%, 50%)"",""hsl(225, 50%, 50%)""]","0","0.5","0","circle","black","3","2","2","16.89160839160839","[9,17,17,17,17,16,17,17,17,17,17,17,17,17,17,17,16,17,16,17,17,17,17,17,17,17,17,17,17,16,17,17,17,17,17,16,17,17,17,17,17,17,17,17,17,17,17,17,17,17,17,17,17,16,17,17,17,17,17,17,16,16,17,17,17,17,17,17,17,17,17,17,17,17,17,17,17,17,17,17,16,17,17,17,17,17,17,17,17,17,17,17,17,16,17,17,17,17,17,17,16,17,17,17,17,16,17,17,17,17,17,17,17,17,17,17,17,17,17,17,17,17,17,17,17,17,17,16,17,17,17,17,17,17,17,17,17,17,17,17,17,17,17,17,17,17,17,17,17,17,17,17,17,17,17,17,17,17,17,17,17,17,17,17,17,16,17,17,17,17,17,17,17,17,17,17,17,17,16,17,17,17,17,17,16,16,17,17,17,17,17,17,17,17,17,17,17,17,17,17,17,17,17,17,17,17,17,17,17,17,16,17,17,17,17,17,17,17,17,17,17,17,17,17,16,17,17,17,17,17,17,17,17,17,17,17,17,17,17,17,17,17,17,17,17,17,17,17,17,17,17,17,17,17,17,17,17,17,17,17,17,17,17,17,17,16,17,16,17,16,17,17,17,17,18,15,17,17,17,17,17,17,17,17,17,17]","286","956","478","false","20","20","black","1","false","1","1","1920","956","ArrowLeft","staircase_motion","","","","","",""
"","","","","","html-keyboard-response","49","2518268","0.0-5.0-1.0-0.0-1.0-1.0-0.0-0.0-2.1","null","","null","<p style='font-size: 60px; color: red'>错误!</p>","","","","","","","","","","","","","","","","","","","","","","","","","","","","","","","","","","","","","","","","","","","","","","","","",""
"","","","","","html-keyboard-response","50","2519268","0.0-5.0-1.0-0.0-1.0-1.0-0.0-0.0-0.2","null","fixation","null","<p style='font-size: 48px; color: white'>+</p >","","","","","","","","","","","","","","","","","","","","","","","","","","","","","","","","","","","","","","","","","","","","","","","","",""
"","","","","","rdk","51","2524360","0.0-5.0-1.0-0.0-1.0-1.0-0.0-0.0-1.2","4604","motion_test","arrowleft","","false","[""ArrowLeft"",""ArrowRight""]","ArrowRight","-1","true","1","100","0","0.07","0","3","1","-1","2","300","300","[""white""]","[""hsl(0, 50%, 50%)"",""hsl(225, 50%, 50%)""]","0","0.5","0","circle","black","3","2","2","16.869565217391305","[8,17,17,17,17,17,16,17,17,17,17,16,17,17,17,16,17,17,17,17,17,17,17,17,16,17,17,17,17,17,17,17,17,17,17,17,17,17,17,17,16,17,17,17,17,17,17,17,17,17,17,17,17,17,16,17,17,17,17,17,17,17,17,17,17,17,17,17,17,17,17,17,17,17,17,17,17,16,17,16,17,16,17,17,17,17,17,17,17,17,17,17,17,17,17,17,17,16,17,17,17,17,17,17,17,17,17,17,17,16,17,17,17,17,17,17,16,17,17,17,17,17,17,17,17,17,17,17,17,17,17,16,17,17,17,17,17,17,17,17,17,17,17,17,17,17,16,17,17,17,17,17,17,17,17,17,17,17,17,17,17,17,17,17,17,17,17,16,17,16,16,17,17,17,17,17,16,17,17,17,17,17,16,17,17,17,16,17,16,17,17,17,17,17,17,17,17,16,17,17,17,17,17,17,17,17,17,17,17,17,17,16,17,17,17,17,17,17,17,17,17,17,17,17,17,17,17,16,17,17,17,17,17,17,17,17,17,17,17,17,17,17,17,17,17,17,16,17,17,17,16,17,17,16,17,17,17,17,17,17,17,17,17,17,17,17,17,17,17,17,17,17,17,17,17,17]","276","956","478","false","20","20","black","1","false","1","1","1920","956","ArrowRight","staircase_motion","","","","","",""
"","","","","","html-keyboard-response","52","2525349","0.0-5.0-1.0-0.0-1.0-1.0-0.0-0.0-2.2","null","","null","<p style='font-size: 60px; color: red'>错误!</p>","","","","","","","","","","","","","","","","","","","","","","","","","","","","","","","","","","","","","","","","","","","","","","","","",""
"","","","","","html-keyboard-response","53","2526352","0.0-5.0-1.0-0.0-1.0-1.0-0.0-0.0-0.3","null","fixation","null","<p style='font-size: 48px; color: white'>+</p >","","","","","","","","","","","","","","","","","","","","","","","","","","","","","","","","","","","","","","","","","","","","","","","","",""
"","","","","","rdk","54","2528840","0.0-5.0-1.0-0.0-1.0-1.0-0.0-0.0-1.3","2001","motion_test","arrowright","","true","[""ArrowLeft"",""ArrowRight""]","ArrowRight","-1","true","1","100","0","0.07","0","3","1","-1","2","300","300","[""white""]","[""hsl(0, 50%, 50%)"",""hsl(225, 50%, 50%)""]","0","0.5","0","circle","black","3","2","2","16.85","[9,17,16,17,17,17,17,17,17,17,17,16,17,17,17,17,17,17,17,16,17,17,17,17,17,16,17,17,17,17,17,17,17,17,17,17,17,17,17,17,17,17,17,17,17,17,17,17,17,17,17,17,17,17,17,17,17,17,17,17,17,17,17,16,16,17,17,17,17,17,16,17,17,17,17,17,17,16,17,17,17,17,17,17,17,17,17,17,17,17,17,17,17,17,17,16,17,17,17,17,17,17,17,16,17,17,17,17,17,17,17,17,17,17,17,17,17,17,17,17]","120","956","478","false","20","20","black","1","false","1","1","1920","956","ArrowRight","staircase_motion","","","","","",""
"","","","","","html-keyboard-response","55","2529835","0.0-5.0-1.0-0.0-1.0-1.0-0.0-0.0-2.3","null","","null","<p style='font-size: 60px; color: green'>正确!</p>","","","","","","","","","","","","","","","","","","","","","","","","","","","","","","","","","","","","","","","","","","","","","","","","",""
"","","","","","html-keyboard-response","56","2530834","0.0-5.0-1.0-0.0-1.0-1.0-0.0-0.0-0.4","null","fixation","null","<p style='font-size: 48px; color: white'>+</p >","","","","","","","","","","","","","","","","","","","","","","","","","","","","","","","","","","","","","","","","","","","","","","","","",""
"","","","","","rdk","57","2534392","0.0-5.0-1.0-0.0-1.0-1.0-0.0-0.0-1.4","3070","motion_test","arrowright","","true","[""ArrowLeft"",""ArrowRight""]","ArrowRight","-1","true","1","100","0","0.07","0","3","1","-1","2","300","300","[""white""]","[""hsl(0, 50%, 50%)"",""hsl(225, 50%, 50%)""]","0","0.5","0","circle","black","3","2","2","16.869565217391305","[8,17,17,17,17,17,17,17,17,17,16,17,17,17,17,17,17,17,17,17,17,17,17,17,17,17,16,17,17,17,17,17,17,17,17,17,16,17,17,17,17,17,17,17,17,17,17,17,17,17,17,17,17,17,17,17,17,17,17,17,17,17,17,17,17,17,17,17,17,17,17,17,17,17,17,17,16,17,17,17,17,17,17,17,16,17,17,17,17,17,17,17,17,17,17,17,17,16,17,17,17,17,17,17,16,17,17,17,17,17,17,17,16,17,17,17,17,17,17,17,17,17,17,17,17,17,17,17,17,17,17,17,17,17,17,17,17,17,17,16,17,17,17,17,17,17,17,16,17,16,17,17,17,17,16,17,17,17,17,17,16,17,17,17,17,17,17,17,17,17,17,17,16,17,17,17,17,17,17,17,17,17,17,16]","184","956","478","false","20","20","black","1","false","1","1","1920","956","ArrowRight","staircase_motion","","","","","",""
"","","","","","html-keyboard-response","58","2535385","0.0-5.0-1.0-0.0-1.0-1.0-0.0-0.0-2.4","null","","null","<p style='font-size: 60px; color: green'>正确!</p>","","","","","","","","","","","","","","","","","","","","","","","","","","","","","","","","","","","","","","","","","","","","","","","","",""
"","","","","","html-keyboard-response","59","2536384","0.0-5.0-1.0-0.0-1.0-1.0-0.0-0.0-0.5","null","fixation","null","<p style='font-size: 48px; color: white'>+</p >","","","","","","","","","","","","","","","","","","","","","","","","","","","","","","","","","","","","","","","","","","","","","","","","",""
"","","","","","rdk","60","2543560","0.0-5.0-1.0-0.0-1.0-1.0-0.0-0.0-1.5","6687","motion_test","arrowright","","false","[""ArrowLeft"",""ArrowRight""]","ArrowLeft","-1","true","1","100","180","0.07","0","3","1","-1","2","300","300","[""white""]","[""hsl(0, 50%, 50%)"",""hsl(225, 50%, 50%)""]","0","0.5","0","circle","black","3","2","2","16.877805486284288","[8,17,17,17,17,17,17,17,17,17,17,17,17,17,17,16,17,17,17,17,17,17,17,17,16,17,17,17,17,17,17,17,17,17,17,17,17,17,17,17,17,17,17,17,16,17,17,17,17,17,17,17,17,17,17,17,17,17,17,17,17,17,16,17,17,17,16,17,17,17,17,17,17,17,16,17,17,16,17,17,17,17,17,17,17,17,17,17,17,17,17,17,17,17,17,17,17,17,17,17,16,17,17,17,17,16,17,17,17,17,17,16,17,17,17,17,17,17,17,17,17,17,17,17,16,17,17,17,17,17,17,16,17,17,17,17,17,17,17,17,16,17,17,16,17,17,17,17,16,17,17,17,17,17,17,17,16,17,17,17,16,17,17,17,17,16,17,17,17,17,17,17,17,17,17,17,16,17,17,17,17,16,17,17,16,17,17,17,17,17,17,16,17,17,17,17,17,17,17,17,17,17,17,17,17,17,17,17,17,17,16,17,17,17,17,17,17,17,17,17,17,17,17,17,17,17,17,16,17,17,17,17,17,17,16,17,17,17,17,17,17,16,17,17,17,17,17,17,17,17,17,17,17,17,17,17,17,17,17,17,17,17,17,17,17,17,17,17,17,17,16,17,17,17,16,17,17,17,16,17,17,17,17,17,17,17,17,17,17,17,17,17,17,17,16,17,17,17,17,17,17,17,17,16,17,17,17,17,17,17,17,17,17,17,17,17,17,17,17,17,17,17,17,17,17,17,17,16,17,17,16,17,17,17,17,17,16,17,17,17,17,17,17,17,17,17,17,17,17,16,17,17,17,17,17,17,17,17,17,17,17,17,17,16,17,17,17,17,16,16,17,17,17,17,17,17,17,17,17,17,17,16,17,17,16,17,17,17,17,17,17,17,17,17,17,17,17,17,17,17,17]","401","956","478","false","20","20","black","1","false","1","1","1920","956","ArrowLeft","staircase_motion","","","","","",""
"","","","","","html-keyboard-response","61","2544551","0.0-5.0-1.0-0.0-1.0-1.0-0.0-0.0-2.5","null","","null","<p style='font-size: 60px; color: red'>错误!</p>","","","","","","","","","","","","","","","","","","","","","","","","","","","","","","","","","","","","","","","","","","","","","","","","",""
"","","","","","html-keyboard-response","62","2545551","0.0-5.0-1.0-0.0-1.0-1.0-0.0-0.0-0.6","null","fixation","null","<p style='font-size: 48px; color: white'>+</p >","","","","","","","","","","","","","","","","","","","","","","","","","","","","","","","","","","","","","","","","","","","","","","","","",""
"","","","","","rdk","63","2549064","0.0-5.0-1.0-0.0-1.0-1.0-0.0-0.0-1.6","3026","motion_test","arrowright","","true","[""ArrowLeft"",""ArrowRight""]","ArrowRight","-1","true","1","100","0","0.07","0","3","1","-1","2","300","300","[""white""]","[""hsl(0, 50%, 50%)"",""hsl(225, 50%, 50%)""]","0","0.5","0","circle","black","3","2","2","16.867403314917127","[9,17,16,17,17,17,17,17,17,17,17,17,17,17,17,17,17,17,17,17,17,16,17,17,17,17,17,17,17,17,17,17,17,17,17,17,17,17,17,17,16,17,17,17,17,17,17,17,17,17,17,17,17,17,16,17,17,17,17,17,17,17,17,17,17,17,17,17,17,17,17,17,17,17,17,17,17,17,17,17,17,17,17,17,17,17,17,17,17,17,17,17,17,17,17,17,17,17,17,17,16,17,17,17,17,17,17,17,17,17,17,17,17,17,17,16,17,17,17,17,16,17,16,17,17,17,16,17,16,17,17,17,17,17,16,16,17,17,17,17,17,17,17,17,17,17,17,16,17,17,17,16,17,17,17,17,17,17,17,17,17,17,17,17,17,17,17,17,17,17,16,17,17,17,16,17,17,17,17,17,17]","181","956","478","false","20","20","black","1","false","1","1","1920","956","ArrowRight","staircase_motion","","","","","",""
"","","","","","html-keyboard-response","64","2550052","0.0-5.0-1.0-0.0-1.0-1.0-0.0-0.0-2.6","null","","null","<p style='font-size: 60px; color: green'>正确!</p>","","","","","","","","","","","","","","","","","","","","","","","","","","","","","","","","","","","","","","","","","","","","","","","","",""
"","","","","","html-keyboard-response","65","2551051","0.0-5.0-1.0-0.0-1.0-1.0-0.0-0.0-0.7","null","fixation","null","<p style='font-size: 48px; color: white'>+</p >","","","","","","","","","","","","","","","","","","","","","","","","","","","","","","","","","","","","","","","","","","","","","","","","",""
"","","","","","rdk","66","2554376","0.0-5.0-1.0-0.0-1.0-1.0-0.0-0.0-1.7","2837","motion_test","arrowleft","","true","[""ArrowLeft"",""ArrowRight""]","ArrowLeft","-1","true","1","100","180","0.07","0","3","1","-1","2","300","300","[""white""]","[""hsl(0, 50%, 50%)"",""hsl(225, 50%, 50%)""]","0","0.5","0","circle","black","3","2","2","16.847058823529412","[8,17,17,17,17,17,17,17,16,17,17,17,17,17,17,17,17,17,17,17,17,17,17,17,17,17,16,17,17,17,17,17,17,17,17,17,17,16,17,16,17,17,17,17,17,17,17,17,16,17,17,17,16,17,17,17,17,17,17,16,17,16,17,17,17,17,17,17,17,17,17,17,17,17,17,17,16,17,17,16,17,17,17,17,17,17,17,17,17,17,17,16,17,17,17,17,17,17,17,16,17,17,17,17,17,17,17,17,17,17,17,17,17,17,17,16,17,17,17,17,17,17,17,17,17,17,17,17,17,16,17,17,17,17,17,17,17,17,17,17,17,17,17,17,17,16,16,17,17,17,17,17,17,17,17,17,17,17,17,17,17,17,17,16,17,17,17,17,17,17]","170","956","478","false","20","20","black","1","false","1","1","1920","956","ArrowLeft","staircase_motion","","","","","",""
"","","","","","html-keyboard-response","67","2555368","0.0-5.0-1.0-0.0-1.0-1.0-0.0-0.0-2.7","null","","null","<p style='font-size: 60px; color: green'>正确!</p>","","","","","","","","","","","","","","","","","","","","","","","","","","","","","","","","","","","","","","","","","","","","","","","","",""
"","","","","","html-keyboard-response","68","2556368","0.0-5.0-1.0-0.0-1.0-1.0-0.0-0.0-0.8","null","fixation","null","<p style='font-size: 48px; color: white'>+</p >","","","","","","","","","","","","","","","","","","","","","","","","","","","","","","","","","","","","","","","","","","","","","","","","",""
"","","","","","rdk","69","2564520","0.0-5.0-1.0-0.0-1.0-1.0-0.0-0.0-1.8","7664","motion_test","arrowleft","","true","[""ArrowLeft"",""ArrowRight""]","ArrowLeft","-1","true","1","100","180","0.07","0","3","1","-1","2","300","300","[""white""]","[""hsl(0, 50%, 50%)"",""hsl(225, 50%, 50%)""]","0","0.5","0","circle","black","3","2","2","16.889130434782608","[7,17,17,17,17,17,17,17,17,17,17,17,17,17,17,17,17,17,17,17,17,17,17,17,16,17,17,17,17,17,17,17,17,17,17,16,17,17,17,17,17,17,17,17,17,16,17,17,17,17,17,16,17,17,17,17,17,17,17,17,17,17,17,17,17,17,17,17,17,16,17,17,17,17,17,16,17,17,17,17,17,17,17,17,17,17,17,17,17,16,17,17,17,17,17,16,17,17,17,17,17,16,17,17,17,17,17,17,17,17,17,17,16,17,17,17,16,17,17,17,17,17,16,17,17,17,17,17,17,17,17,17,17,17,16,17,17,17,17,17,17,17,17,17,17,17,17,17,17,17,17,17,17,17,17,17,17,17,17,16,17,17,17,17,17,17,17,17,17,17,17,17,17,17,17,17,17,17,17,17,17,17,16,17,17,17,17,17,16,17,17,17,16,17,17,17,16,17,17,17,17,17,17,17,17,17,17,17,17,17,17,17,17,17,17,17,17,17,17,17,17,17,17,17,17,17,17,17,17,17,17,16,17,17,17,17,17,17,17,17,17,16,16,17,17,17,17,17,17,17,17,17,17,17,17,17,17,17,17,17,17,17,17,17,17,17,17,17,17,17,17,17,17,17,17,17,17,17,17,17,17,16,17,17,17,17,17,16,17,17,17,17,17,17,16,17,17,17,17,17,17,17,16,17,17,17,17,17,17,16,17,17,17,17,17,17,17,17,17,17,17,17,17,17,16,17,17,17,17,17,17,17,17,17,17,16,17,17,17,17,17,16,17,17,17,16,17,17,17,17,17,17,17,17,17,17,17,17,17,17,17,17,17,17,17,17,17,17,17,16,17,17,17,17,16,16,17,17,17,17,17,17,17,17,17,16,17,17,17,17,17,17,17,17,17,17,17,17,17,17,17,17,16,17,17,17,17,17,16,17,17,17,17,17,16,17,17,17,17,17,17,17,17,16,17,17,17,17,17,16,17,17,17,17,17,17,17,17,17,17,17,17,17,17,17,17,17,17,17,16,17,17,17,17,16,17,17,17,17,17]","460","956","478","false","20","20","black","1","false","1","1","1920","956","ArrowLeft","staircase_motion","","","","","",""
"","","","","","html-keyboard-response","70","2565517","0.0-5.0-1.0-0.0-1.0-1.0-0.0-0.0-2.8","null","","null","<p style='font-size: 60px; color: green'>正确!</p>","","","","","","","","","","","","","","","","","","","","","","","","","","","","","","","","","","","","","","","","","","","","","","","","",""
"","","","","","html-keyboard-response","71","2566517","0.0-5.0-1.0-0.0-1.0-1.0-0.0-0.0-0.9","null","fixation","null","<p style='font-size: 48px; color: white'>+</p >","","","","","","","","","","","","","","","","","","","","","","","","","","","","","","","","","","","","","","","","","","","","","","","","",""
"","","","","","rdk","72","2573672","0.0-5.0-1.0-0.0-1.0-1.0-0.0-0.0-1.9","6668","motion_test","arrowleft","","false","[""ArrowLeft"",""ArrowRight""]","ArrowRight","-1","true","1","100","0","0.07","0","3","1","-1","2","300","300","[""white""]","[""hsl(0, 50%, 50%)"",""hsl(225, 50%, 50%)""]","0","0.5","0","circle","black","3","2","2","16.895","[10,17,17,17,17,17,17,17,17,16,17,17,17,17,17,17,16,17,17,17,17,17,17,17,16,17,17,17,17,17,17,16,17,17,17,17,17,17,17,17,17,17,17,17,17,16,17,17,17,17,17,17,16,17,17,17,17,17,17,17,16,16,17,17,17,17,17,17,17,17,17,17,17,17,17,17,17,17,17,17,17,17,17,17,17,17,17,17,17,17,17,17,17,17,17,17,17,17,17,17,17,17,17,17,17,17,17,17,17,17,17,17,17,17,17,17,17,17,17,17,17,17,17,17,17,17,16,17,16,17,17,17,17,17,17,17,17,17,17,17,17,17,16,17,17,17,17,17,16,17,17,17,17,16,17,17,17,16,17,17,17,17,17,17,17,17,17,17,17,17,16,17,17,17,17,17,17,17,17,17,17,16,17,17,17,17,17,17,17,17,17,16,17,17,17,17,17,17,17,17,17,17,17,17,17,16,17,17,17,17,16,17,17,17,17,17,17,17,17,17,17,17,17,17,17,17,17,17,17,17,17,16,17,16,17,17,17,17,17,16,17,17,17,17,17,17,17,17,16,17,17,17,17,17,17,17,17,17,17,17,17,16,17,16,17,17,17,17,17,17,17,17,17,17,16,17,17,17,17,17,17,17,17,17,17,17,17,17,16,17,17,17,17,17,17,17,16,17,17,17,16,17,17,17,17,17,17,17,17,16,17,17,17,17,17,17,17,17,17,17,16,17,17,17,17,17,17,17,17,17,17,17,17,16,17,17,17,17,17,17,17,17,17,17,17,17,17,16,17,17,17,17,17,17,17,17,17,17,17,17,17,17,17,17,17,17,17,17,16,16,17,17,17,17,17,17,17,17,17,17,17,17,17,17,17,17,17,17,17,17,17,17,17,17,17,17,17,17,17,17]","400","956","478","false","20","20","black","1","false","1","1","1920","956","ArrowRight","staircase_motion","","","","","",""
"","","","","","html-keyboard-response","73","2574668","0.0-5.0-1.0-0.0-1.0-1.0-0.0-0.0-2.9","null","","null","<p style='font-size: 60px; color: red'>错误!</p>","","","","","","","","","","","","","","","","","","","","","","","","","","","","","","","","","","","","","","","","","","","","","","","","",""
"","","","","","html-keyboard-response","74","2575667","0.0-5.0-1.0-0.0-1.0-1.0-0.0-0.0-0.10","null","fixation","null","<p style='font-size: 48px; color: white'>+</p >","","","","","","","","","","","","","","","","","","","","","","","","","","","","","","","","","","","","","","","","","","","","","","","","",""
"","","","","","rdk","75","2579496","0.0-5.0-1.0-0.0-1.0-1.0-0.0-0.0-1.10","3342","motion_test","arrowleft","","true","[""ArrowLeft"",""ArrowRight""]","ArrowLeft","-1","true","1","100","180","0.07","0","3","1","-1","2","300","300","[""white""]","[""hsl(0, 50%, 50%)"",""hsl(225, 50%, 50%)""]","0","0.5","0","circle","black","3","2","2","16.865","[10,16,17,17,17,17,17,17,17,16,17,17,17,17,17,17,17,17,17,17,17,17,17,17,17,17,17,17,16,17,17,17,16,17,17,17,17,17,17,17,17,17,17,17,17,17,17,17,17,16,17,17,16,17,16,17,17,17,17,16,17,17,16,17,17,16,17,17,17,17,17,16,17,16,17,17,17,16,17,17,17,17,17,17,17,17,17,17,17,17,17,17,17,17,17,17,17,17,17,17,17,17,17,17,17,17,17,17,17,17,17,17,17,17,17,17,17,17,17,17,16,17,17,17,17,17,17,17,17,17,17,17,17,17,17,17,17,17,17,17,17,17,17,17,17,17,17,17,17,17,16,17,17,17,17,17,17,17,17,17,17,17,17,16,17,17,16,17,17,17,17,17,17,17,17,17,17,17,17,17,17,16,17,17,17,17,17,17,16,17,17,16,17,17,17,17,17,17,17,17]","200","956","478","false","20","20","black","1","false","1","1","1920","956","ArrowLeft","staircase_motion","","","","","",""
"","","","","","html-keyboard-response","76","2580485","0.0-5.0-1.0-0.0-1.0-1.0-0.0-0.0-2.10","null","","null","<p style='font-size: 60px; color: green'>正确!</p>","","","","","","","","","","","","","","","","","","","","","","","","","","","","","","","","","","","","","","","","","","","","","","","","",""
"","","","","","html-keyboard-response","77","2581486","0.0-5.0-1.0-0.0-1.0-1.0-0.0-0.0-0.11","null","fixation","null","<p style='font-size: 48px; color: white'>+</p >","","","","","","","","","","","","","","","","","","","","","","","","","","","","","","","","","","","","","","","","","","","","","","","","",""
"","","","","","rdk","78","2585304","0.0-5.0-1.0-0.0-1.0-1.0-0.0-0.0-1.11","3333","motion_test","arrowleft","","false","[""ArrowLeft"",""ArrowRight""]","ArrowRight","-1","true","1","100","0","0.07","0","3","1","-1","2","300","300","[""white""]","[""hsl(0, 50%, 50%)"",""hsl(225, 50%, 50%)""]","0","0.5","0","circle","black","3","2","2","16.87","[10,17,17,17,17,17,17,17,17,17,17,17,16,17,17,17,17,17,17,17,17,16,17,17,17,17,17,17,17,17,17,17,16,17,17,17,17,16,17,17,17,17,17,16,16,17,17,17,17,17,17,17,16,17,17,17,17,17,17,17,17,17,17,17,16,17,17,17,17,17,16,17,17,17,17,17,17,17,17,17,16,17,17,17,17,17,17,17,16,17,17,17,17,17,17,17,17,17,17,17,17,17,17,17,17,17,17,17,17,17,17,16,17,17,17,17,17,17,17,17,17,17,17,17,16,17,17,17,17,17,17,16,17,17,17,17,16,17,17,17,17,17,17,17,16,17,17,17,17,17,17,17,17,16,17,17,17,17,17,17,17,17,17,17,17,17,17,16,17,17,17,17,17,17,17,17,17,17,17,17,17,17,17,17,17,17,17,17,17,17,16,17,17,17,17,17,17,17,17,17]","200","956","478","false","20","20","black","1","false","1","1","1920","956","ArrowRight","staircase_motion","","","","","",""
"","","","","","html-keyboard-response","79","2586301","0.0-5.0-1.0-0.0-1.0-1.0-0.0-0.0-2.11","null","","null","<p style='font-size: 60px; color: red'>错误!</p>","","","","","","","","","","","","","","","","","","","","","","","","","","","","","","","","","","","","","","","","","","","","","","","","",""
"","","","","","html-keyboard-response","80","2588802","0.0-5.0-1.0-0.0-1.0-1.0-0.0-1.0","null","","null","<p style='font-size: 35px; color: white'>您的正确率为： 58% 。平均反应时为：4125毫秒。</p>","","","","","","","","","","","","","","","","","","","","","","","","","","","","","","","","","","","","","","","","","","","","","","","","",""
"","","","","","html-keyboard-response","81","2589802","0.0-5.0-1.0-0.0-1.0-2.0-0.0-0.0-0.0","null","fixation","null","<p style='font-size: 48px; color: white'>+</p >","","","","","","","","","","","","","","","","","","","","","","","","","","","","","","","","","","","","","","","","","","","","","","","","",""
"","","","","","rdk","82","2597176","0.0-5.0-1.0-0.0-1.0-2.0-0.0-0.0-1.0","6888","motion_test","arrowleft","","true","[""ArrowLeft"",""ArrowRight""]","ArrowLeft","-1","true","1","100","180","0.07","0","3","1","-1","2","300","300","[""white""]","[""hsl(0, 50%, 50%)"",""hsl(225, 50%, 50%)""]","0","0.5","0","circle","black","3","2","2","16.89588377723971","[10,17,17,17,17,17,17,17,17,16,17,17,17,17,17,17,16,17,16,17,17,17,17,17,17,17,17,17,17,17,17,17,17,17,16,17,17,17,17,17,17,17,17,17,17,17,17,17,17,17,17,17,17,17,17,17,17,17,16,17,17,16,17,17,17,16,17,17,17,17,17,17,17,17,17,16,17,17,17,17,17,16,17,17,17,17,17,16,17,17,17,16,17,17,17,17,17,17,16,17,17,16,17,17,17,17,17,17,17,16,17,17,17,17,17,17,17,17,17,17,17,17,17,17,17,17,17,17,17,17,17,17,17,17,17,17,16,17,17,16,17,17,16,17,17,17,17,17,17,16,17,17,17,17,17,17,17,17,17,17,17,17,17,17,17,17,17,17,17,17,17,17,17,17,17,17,17,17,17,16,17,17,17,17,17,17,17,17,17,17,17,17,17,17,17,17,17,17,17,16,17,17,17,17,17,17,17,17,17,17,17,17,17,17,17,16,17,17,16,16,17,17,17,17,17,17,17,17,17,16,17,17,17,17,17,17,17,17,17,17,17,16,17,16,17,17,17,17,17,17,17,17,17,17,17,17,17,16,17,17,17,17,17,16,17,17,16,17,17,17,17,17,17,17,17,17,17,17,17,17,17,17,17,17,17,17,17,17,17,17,17,16,17,17,17,17,17,17,17,17,17,17,17,17,16,17,16,17,17,17,17,17,17,17,17,17,16,16,17,17,17,17,17,17,17,17,17,17,17,17,17,17,17,17,17,17,17,17,17,17,17,17,17,17,17,17,17,17,17,17,17,17,17,17,17,17,17,17,17,17,17,17,17,17,17,17,17,17,17,17,17,17,17,17,17,17,16,17,17,17,17,17,17,17,17,17,17,17,17,17,17,17,17,17,17,17,17,17,16,17,17,17,17,17,17,17,17,17,17,17,17,17,17]","413","956","478","false","20","20","black","1","false","1","1","1920","956","ArrowLeft","staircase_motion","","","","","",""
"","","","","","html-keyboard-response","83","2598167","0.0-5.0-1.0-0.0-1.0-2.0-0.0-0.0-2.0","null","","null","<p style='font-size: 60px; color: green'>正确!</p>","","","","","","","","","","","","","","","","","","","","","","","","","","","","","","","","","","","","","","","","","","","","","","","","",""
"","","","","","html-keyboard-response","84","2599168","0.0-5.0-1.0-0.0-1.0-2.0-0.0-0.0-0.1","null","fixation","null","<p style='font-size: 48px; color: white'>+</p >","","","","","","","","","","","","","","","","","","","","","","","","","","","","","","","","","","","","","","","","","","","","","","","","",""
"","","","","","rdk","85","2608040","0.0-5.0-1.0-0.0-1.0-2.0-0.0-0.0-1.1","8385","motion_test","arrowright","","true","[""ArrowLeft"",""ArrowRight""]","ArrowRight","-1","true","1","100","0","0.07","0","3","1","-1","2","300","300","[""white""]","[""hsl(0, 50%, 50%)"",""hsl(225, 50%, 50%)""]","0","0.5","0","circle","black","3","2","2","16.910536779324055","[9,17,17,17,17,17,17,17,17,17,17,17,17,17,17,17,16,17,17,17,16,17,17,17,17,17,15,17,17,17,17,17,17,17,17,16,17,17,17,17,17,17,17,17,17,17,17,17,17,17,17,17,17,17,17,16,17,17,17,17,17,16,17,17,16,17,17,17,17,17,17,16,17,17,17,17,17,17,17,17,17,17,17,17,17,17,17,17,17,16,17,17,17,17,17,17,17,17,17,17,17,17,17,17,17,17,17,17,17,17,17,17,17,17,17,17,17,17,17,17,17,17,17,17,17,17,17,17,17,17,17,17,17,17,17,17,17,17,17,17,17,17,17,17,17,17,17,17,17,17,17,17,17,17,16,17,17,17,17,17,17,17,17,17,17,17,17,17,17,17,17,17,17,17,17,17,17,17,16,17,17,17,17,17,17,17,17,17,17,17,17,17,17,17,17,17,17,17,17,17,17,17,17,17,17,17,17,17,16,17,17,17,17,17,17,17,17,17,17,17,16,17,17,17,17,17,17,18,15,17,17,17,17,17,17,17,17,17,17,17,17,17,17,17,17,17,17,17,17,17,17,17,17,17,17,17,17,16,17,16,17,17,17,17,17,17,17,17,17,16,17,17,17,17,17,17,17,17,17,17,16,17,17,17,17,17,17,17,17,17,16,17,17,17,17,17,17,16,16,17,17,17,17,17,17,17,17,17,17,17,17,17,17,16,16,17,17,17,17,17,17,17,16,17,17,17,17,17,17,17,17,17,17,17,17,16,17,17,17,17,16,17,17,17,17,17,16,17,17,17,17,17,17,17,17,17,17,17,17,17,17,17,17,17,17,17,17,17,17,17,17,17,17,17,17,17,17,17,17,17,17,17,17,16,17,17,17,17,17,17,16,17,17,17,17,17,17,17,17,17,17,17,17,17,17,17,17,17,17,17,17,17,17,16,17,17,17,17,16,17,17,17,17,17,17,17,17,17,16,17,17,17,17,17,17,17,17,17,17,17,17,17,17,17,17,17,17,17,17,17,17,17,17,17,17,17,17,17,17,17,17,17,17,17,17,17,17,17,17,17,17,17,17,16,17,17,17,17,16,17,17,17,17,17,17,17,17,17,17,17,17,17,17,16,17,17,17,17,16,17,17,17,17]","503","956","478","false","20","20","black","1","false","1","1","1920","956","ArrowRight","staircase_motion","","","","","",""
"","","","","","html-keyboard-response","86","2609035","0.0-5.0-1.0-0.0-1.0-2.0-0.0-0.0-2.1","null","","null","<p style='font-size: 60px; color: green'>正确!</p>","","","","","","","","","","","","","","","","","","","","","","","","","","","","","","","","","","","","","","","","","","","","","","","","",""
"","","","","","html-keyboard-response","87","2610034","0.0-5.0-1.0-0.0-1.0-2.0-0.0-0.0-0.2","null","fixation","null","<p style='font-size: 48px; color: white'>+</p >","","","","","","","","","","","","","","","","","","","","","","","","","","","","","","","","","","","","","","","","","","","","","","","","",""
"","","","","","rdk","88","2613112","0.0-5.0-1.0-0.0-1.0-2.0-0.0-0.0-1.2","2591","motion_test","arrowleft","","true","[""ArrowLeft"",""ArrowRight""]","ArrowLeft","-1","true","1","100","180","0.07","0","3","1","-1","2","300","300","[""white""]","[""hsl(0, 50%, 50%)"",""hsl(225, 50%, 50%)""]","0","0.5","0","circle","black","3","2","2","16.87741935483871","[10,17,17,17,17,17,17,17,17,17,17,17,17,17,17,17,17,17,17,17,17,17,17,16,17,17,17,17,17,17,16,17,17,16,17,17,17,17,17,17,17,17,17,17,17,17,17,17,17,17,17,17,16,16,16,17,17,17,17,17,17,17,17,17,17,17,17,17,17,17,17,17,17,17,17,17,17,17,17,17,17,17,17,17,17,17,17,16,17,16,17,17,17,17,17,17,17,17,17,17,16,17,17,17,17,17,17,17,17,17,17,17,17,17,17,17,17,17,17,17,17,17,17,17,17,17,17,17,17,16,17,17,17,17,17,17,17,17,17,16,17,17,17,17,17,17,17,16,17,17,17,17,17,17,17]","155","956","478","false","20","20","black","1","false","1","1","1920","956","ArrowLeft","staircase_motion","","","","","",""
"","","","","","html-keyboard-response","89","2614101","0.0-5.0-1.0-0.0-1.0-2.0-0.0-0.0-2.2","null","","null","<p style='font-size: 60px; color: green'>正确!</p>","","","","","","","","","","","","","","","","","","","","","","","","","","","","","","","","","","","","","","","","","","","","","","","","",""
"","","","","","html-keyboard-response","90","2615102","0.0-5.0-1.0-0.0-1.0-2.0-0.0-0.0-0.3","null","fixation","null","<p style='font-size: 48px; color: white'>+</p >","","","","","","","","","","","","","","","","","","","","","","","","","","","","","","","","","","","","","","","","","","","","","","","","",""
"","","","","","rdk","91","2630119","0.0-5.0-1.0-0.0-1.0-2.0-0.0-0.0-1.3","14530","motion_test","arrowleft","","false","[""ArrowLeft"",""ArrowRight""]","ArrowRight","-1","true","1","100","0","0.07","0","3","1","-1","2","300","300","[""white""]","[""hsl(0, 50%, 50%)"",""hsl(225, 50%, 50%)""]","0","0.5","0","circle","black","3","2","2","16.90711009174312","[9,17,17,17,16,16,17,17,17,17,17,17,17,17,16,17,17,17,17,17,17,17,17,17,16,17,17,17,17,17,17,17,17,17,17,17,17,17,17,17,17,17,17,16,17,16,17,17,17,17,17,16,17,17,17,16,17,17,17,17,17,17,17,17,17,17,17,17,17,17,17,16,16,17,17,17,17,17,17,17,16,17,17,17,17,17,17,17,17,17,17,17,17,17,17,17,17,17,17,17,17,17,17,17,17,17,17,17,17,17,17,17,17,17,17,17,16,17,17,17,17,17,17,17,17,17,17,17,17,17,17,16,17,17,17,17,17,17,17,17,17,17,17,17,17,17,17,17,17,17,17,16,17,17,17,17,17,16,17,17,17,17,16,17,17,17,17,17,16,17,17,17,17,17,17,17,17,17,17,17,17,17,17,17,16,17,17,17,17,17,17,17,17,17,17,17,17,17,17,17,17,17,17,16,17,17,17,17,17,17,17,17,17,17,17,16,17,17,17,17,17,17,17,16,17,17,17,17,17,17,17,17,16,17,17,17,17,17,17,17,17,16,17,17,17,17,17,17,17,17,17,17,17,17,17,17,17,17,17,17,17,17,17,17,17,17,17,17,17,17,17,17,17,16,17,17,17,16,17,17,17,17,17,17,17,17,16,17,17,17,17,16,17,17,17,16,17,17,17,17,17,17,17,17,17,16,17,17,17,17,16,17,17,17,17,17,17,17,17,16,17,17,17,17,17,17,16,17,17,17,17,17,16,17,17,17,17,17,16,17,17,17,17,17,17,16,16,17,17,17,16,17,17,17,17,17,17,17,17,17,17,17,17,17,17,17,17,17,17,17,17,17,17,17,17,17,17,17,17,17,17,17,17,17,17,17,17,17,17,17,17,17,17,17,17,17,17,16,17,17,17,17,17,17,17,17,17,17,17,17,17,17,17,17,17,16,17,17,17,17,17,17,17,17,17,17,17,17,17,17,17,17,17,16,17,17,17,17,17,17,17,17,17,17,17,17,17,17,17,17,17,17,17,17,17,17,16,17,17,17,17,17,16,17,17,17,17,17,17,17,16,17,17,17,17,17,17,16,17,17,17,17,17,17,17,17,17,17,17,17,17,17,17,17,17,17,17,17,17,17,17,17,17,17,17,17,17,17,17,17,17,17,17,17,17,17,17,17,16,17,17,17,17,17,17,17,17,17,17,17,16,17,17,17,17,17,17,17,17,17,17,17,17,17,17,17,17,17,17,17,17,17,17,17,17,17,17,17,17,17,17,17,16,17,17,17,17,17,17,17,17,17,17,17,17,17,16,17,17,17,17,17,17,17,17,17,17,17,17,16,17,17,17,17,17,17,17,17,17,17,17,17,17,17,17,17,17,17,17,17,17,17,17,16,17,17,17,17,17,17,17,16,17,17,17,17,17,17,16,17,16,17,17,17,17,17,17,17,16,17,17,17,17,17,17,17,17,17,16,17,17,17,17,16,17,17,17,17,17,17,17,17,17,17,17,17,17,17,17,17,17,17,17,16,17,17,17,17,17,17,17,17,17,17,17,17,16,16,17,17,17,17,17,17,17,17,17,17,16,17,17,17,17,17,17,17,17,17,17,17,17,17,17,17,17,17,17,17,17,17,17,17,17,17,17,17,16,17,17,17,17,17,17,17,17,17,17,17,17,17,17,17,17,17,17,17,17,16,17,17,17,17,17,17,17,17,17,17,17,16,17,17,17,17,17,17,17,17,16,17,17,16,17,17,17,17,17,17,17,17,17,17,17,17,17,17,17,17,17,17,17,17,17,17,17,17,17,17,16,17,16,17,17,17,17,17,17,17,17,17,17,17,17,16,17,17,17,17,17,17,16,17,17,17,17,17,17,17,17,17,17,17,17,17,17,17,16,17,17,17,17,17,17,17,17,17,17,17,17,16,17,17,17,17,17,17,16,17,17,17,17,17,17,17,17,17,17,17,17,17,17,16]","872","956","478","false","20","20","black","1","false","1","1","1920","956","ArrowRight","staircase_motion","","","","","",""
"","","","","","html-keyboard-response","92","2631118","0.0-5.0-1.0-0.0-1.0-2.0-0.0-0.0-2.3","null","","null","<p style='font-size: 60px; color: red'>错误!</p>","","","","","","","","","","","","","","","","","","","","","","","","","","","","","","","","","","","","","","","","","","","","","","","","",""
"","","","","","html-keyboard-response","93","2632118","0.0-5.0-1.0-0.0-1.0-2.0-0.0-0.0-0.4","null","fixation","null","<p style='font-size: 48px; color: white'>+</p >","","","","","","","","","","","","","","","","","","","","","","","","","","","","","","","","","","","","","","","","","","","","","","","","",""
"","","","","","rdk","94","2636920","0.0-5.0-1.0-0.0-1.0-2.0-0.0-0.0-1.4","4316","motion_test","arrowright","","true","[""ArrowLeft"",""ArrowRight""]","ArrowRight","-1","true","1","100","0","0.07","0","3","1","-1","2","300","300","[""white""]","[""hsl(0, 50%, 50%)"",""hsl(225, 50%, 50%)""]","0","0.5","0","circle","black","3","2","2","16.895752895752896","[11,17,17,17,17,17,17,17,17,17,17,17,17,17,17,17,17,17,17,17,17,17,17,17,17,17,16,17,17,16,17,17,17,17,17,17,17,17,17,17,17,17,17,17,17,17,17,17,17,17,17,16,17,17,17,17,17,17,17,17,17,17,17,17,17,17,17,17,17,17,17,17,16,17,17,17,17,17,17,17,17,17,17,17,17,17,17,17,17,17,17,17,16,17,16,17,17,17,17,17,16,17,17,17,16,17,17,16,16,17,17,17,17,17,17,17,17,17,17,17,17,17,17,17,17,16,17,17,17,17,17,17,17,17,17,17,17,17,17,17,17,17,17,17,17,17,17,17,17,17,17,16,17,17,17,17,17,17,17,17,17,17,17,17,17,17,17,17,17,17,17,17,17,17,17,17,17,17,16,17,17,16,17,17,17,17,17,17,17,17,17,17,17,17,17,16,17,17,17,17,17,17,17,16,17,17,17,17,17,16,17,17,17,17,17,17,16,17,17,17,16,17,17,17,17,17,17,17,17,16,17,17,17,17,17,17,17,17,17,17,17,17,17,17,16,17,17,17,17,17,17,17,17,17,17,17,17,17,17]","259","956","478","false","20","20","black","1","false","1","1","1920","956","ArrowRight","staircase_motion","","","","","",""
"","","","","","html-keyboard-response","95","2637918","0.0-5.0-1.0-0.0-1.0-2.0-0.0-0.0-2.4","null","","null","<p style='font-size: 60px; color: green'>正确!</p>","","","","","","","","","","","","","","","","","","","","","","","","","","","","","","","","","","","","","","","","","","","","","","","","",""
"","","","","","html-keyboard-response","96","2638917","0.0-5.0-1.0-0.0-1.0-2.0-0.0-0.0-0.5","null","fixation","null","<p style='font-size: 48px; color: white'>+</p >","","","","","","","","","","","","","","","","","","","","","","","","","","","","","","","","","","","","","","","","","","","","","","","","",""
"","","","","","rdk","97","2650280","0.0-5.0-1.0-0.0-1.0-2.0-0.0-0.0-1.5","10875","motion_test","arrowright","","false","[""ArrowLeft"",""ArrowRight""]","ArrowLeft","-1","true","1","100","180","0.07","0","3","1","-1","2","300","300","[""white""]","[""hsl(0, 50%, 50%)"",""hsl(225, 50%, 50%)""]","0","0.5","0","circle","black","3","2","2","16.901840490797547","[9,17,17,17,17,17,17,17,16,17,17,17,17,17,17,17,17,17,17,17,17,17,17,16,17,17,17,17,16,17,17,16,17,17,17,17,17,17,17,17,17,17,16,17,17,17,17,17,17,16,17,17,17,17,17,17,17,17,17,17,17,17,17,17,17,17,17,17,17,17,17,16,17,17,17,17,17,17,17,17,17,17,17,17,17,17,17,17,17,17,17,17,17,17,16,17,17,17,17,17,17,17,16,17,17,17,16,17,17,17,17,17,16,16,17,17,17,17,17,17,17,17,17,17,17,16,17,17,17,17,17,17,17,17,17,17,17,17,16,17,17,17,17,17,17,17,17,16,17,17,17,17,17,17,17,17,17,17,17,16,17,17,17,17,17,17,17,16,17,17,17,17,17,16,16,17,17,17,17,17,17,17,17,16,17,17,17,17,16,17,17,17,17,17,17,17,17,17,17,17,17,17,17,17,17,17,16,17,17,17,17,17,17,16,17,17,17,17,17,17,17,17,17,17,17,17,17,17,17,17,17,17,17,17,17,17,17,17,17,17,17,17,17,17,17,17,16,17,17,17,17,17,17,17,17,17,17,16,17,17,16,17,17,17,17,17,17,17,17,17,17,17,17,17,17,17,17,17,17,16,17,17,17,16,17,17,17,17,17,17,17,17,16,17,17,17,17,17,17,17,17,17,17,17,17,17,17,17,17,17,17,17,17,17,17,17,17,17,17,17,17,17,17,17,17,16,17,17,17,17,17,17,17,16,17,17,17,17,17,17,17,17,17,17,17,17,17,17,17,17,17,17,17,17,17,17,17,17,17,17,17,17,17,17,17,17,17,16,18,15,17,17,17,17,17,17,17,17,17,16,17,17,17,17,17,17,17,17,17,16,17,17,17,17,17,17,17,17,17,17,17,17,17,17,17,17,17,17,17,17,17,16,17,17,16,17,17,17,17,17,17,16,17,17,17,17,17,17,17,16,17,17,17,17,17,17,17,17,17,17,17,17,17,17,17,17,17,17,17,17,17,17,17,17,17,17,17,17,17,17,17,17,17,17,17,17,17,16,17,17,17,17,17,17,17,16,17,17,17,16,17,17,16,17,17,17,17,17,17,16,17,17,17,17,17,17,17,17,17,16,17,17,17,17,17,17,17,17,17,17,17,17,17,17,17,17,17,17,17,17,17,17,17,17,17,17,17,17,17,17,17,17,17,17,16,17,17,17,17,17,17,17,17,17,17,17,17,17,16,17,16,17,17,17,17,17,17,16,17,17,17,17,17,17,16,17,17,17,17,17,17,17,17,17,17,17,17,17,17,17,17,16,17,17,16,17,17,17,17,17,17,17,17,17,17,17,17,17,17,16,17,16,17,17,17,17,17,17,17,16,17,17,17,17,17,17,17,17,17,17,17,17,17,17,17,16,17,17,17,17,17,17,17,17,17,17,17,17,17,17,17,17,17,17,17,17,17,17,17,17,17,17]","652","956","478","false","20","20","black","1","false","1","1","1920","956","ArrowLeft","staircase_motion","","","","","",""
"","","","","","html-keyboard-response","98","2651268","0.0-5.0-1.0-0.0-1.0-2.0-0.0-0.0-2.5","null","","null","<p style='font-size: 60px; color: red'>错误!</p>","","","","","","","","","","","","","","","","","","","","","","","","","","","","","","","","","","","","","","","","","","","","","","","","",""
"","","","","","html-keyboard-response","99","2652269","0.0-5.0-1.0-0.0-1.0-2.0-0.0-0.0-0.6","null","fixation","null","<p style='font-size: 48px; color: white'>+</p >","","","","","","","","","","","","","","","","","","","","","","","","","","","","","","","","","","","","","","","","","","","","","","","","",""
"","","","","","rdk","100","2656520","0.0-5.0-1.0-0.0-1.0-2.0-0.0-0.0-1.6","3764","motion_test","arrowright","","false","[""ArrowLeft"",""ArrowRight""]","ArrowLeft","-1","true","1","100","180","0.07","0","3","1","-1","2","300","300","[""white""]","[""hsl(0, 50%, 50%)"",""hsl(225, 50%, 50%)""]","0","0.5","0","circle","black","3","2","2","16.849557522123895","[8,17,17,17,17,17,16,17,17,17,17,17,16,17,16,17,17,17,17,17,17,17,17,17,17,17,17,17,17,17,17,17,17,16,17,17,17,17,16,17,16,17,17,17,17,17,17,17,16,17,16,17,17,17,17,17,17,17,17,17,17,17,16,17,16,17,17,17,17,17,16,17,17,17,17,17,17,17,17,17,17,17,17,17,16,17,17,17,17,17,17,17,17,17,16,17,17,17,17,17,17,16,17,17,17,17,17,17,17,17,17,17,16,17,17,17,17,17,17,17,17,17,17,17,16,17,17,17,17,17,17,17,16,17,17,17,17,17,17,17,17,17,16,17,17,17,17,17,17,17,17,17,17,17,17,17,17,17,17,17,17,17,17,17,17,17,17,17,17,17,17,17,17,16,17,17,17,17,17,17,17,17,17,17,17,17,17,17,17,17,17,16,17,17,17,17,17,17,16,17,17,16,17,17,17,17,17,17,16,17,17,17,17,17,16,17,17,17,17,17,17,16,17,17,17,17]","226","956","478","false","20","20","black","1","false","1","1","1920","956","ArrowLeft","staircase_motion","","","","","",""
"","","","","","html-keyboard-response","101","2657518","0.0-5.0-1.0-0.0-1.0-2.0-0.0-0.0-2.6","null","","null","<p style='font-size: 60px; color: red'>错误!</p>","","","","","","","","","","","","","","","","","","","","","","","","","","","","","","","","","","","","","","","","","","","","","","","","",""
"","","","","","html-keyboard-response","102","2658518","0.0-5.0-1.0-0.0-1.0-2.0-0.0-0.0-0.7","null","fixation","null","<p style='font-size: 48px; color: white'>+</p >","","","","","","","","","","","","","","","","","","","","","","","","","","","","","","","","","","","","","","","","","","","","","","","","",""
"","","","","","rdk","103","2661065","0.0-5.0-1.0-0.0-1.0-2.0-0.0-0.0-1.7","2060","motion_test","arrowleft","","false","[""ArrowLeft"",""ArrowRight""]","ArrowRight","-1","true","1","100","0","0.07","0","3","1","-1","2","300","300","[""white""]","[""hsl(0, 50%, 50%)"",""hsl(225, 50%, 50%)""]","0","0.5","0","circle","black","3","2","2","16.796747967479675","[9,17,16,16,17,17,17,17,17,17,16,17,16,16,17,17,17,17,17,17,17,16,17,17,17,17,17,17,17,17,17,17,16,17,17,17,17,17,17,17,17,17,17,17,17,17,17,17,16,17,17,17,17,17,17,17,16,17,17,17,17,17,16,17,17,17,17,17,17,17,17,16,17,17,17,17,17,17,17,17,16,17,17,17,17,16,17,16,17,17,17,17,17,17,17,17,17,17,16,17,17,17,17,17,17,17,17,16,17,17,16,17,17,17,17,17,17,17,17,17,17,17,17]","123","956","478","false","20","20","black","1","false","1","1","1920","956","ArrowRight","staircase_motion","","","","","",""
"","","","","","html-keyboard-response","104","2662053","0.0-5.0-1.0-0.0-1.0-2.0-0.0-0.0-2.7","null","","null","<p style='font-size: 60px; color: red'>错误!</p>","","","","","","","","","","","","","","","","","","","","","","","","","","","","","","","","","","","","","","","","","","","","","","","","",""
"","","","","","html-keyboard-response","105","2663051","0.0-5.0-1.0-0.0-1.0-2.0-0.0-0.0-0.8","null","fixation","null","<p style='font-size: 48px; color: white'>+</p >","","","","","","","","","","","","","","","","","","","","","","","","","","","","","","","","","","","","","","","","","","","","","","","","",""
"","","","","","rdk","106","2665160","0.0-5.0-1.0-0.0-1.0-2.0-0.0-0.0-1.8","1622","motion_test","arrowright","","false","[""ArrowLeft"",""ArrowRight""]","ArrowLeft","-1","true","1","100","180","0.07","0","3","1","-1","2","300","300","[""white""]","[""hsl(0, 50%, 50%)"",""hsl(225, 50%, 50%)""]","0","0.5","0","circle","black","3","2","2","16.876288659793815","[10,17,17,17,17,16,17,17,17,17,17,17,17,16,17,17,17,17,17,17,17,17,17,17,17,17,17,17,17,17,17,17,17,17,17,17,17,17,17,17,17,17,17,17,17,17,17,17,16,17,17,17,17,17,17,17,17,17,17,17,17,17,17,16,17,17,17,17,16,17,17,17,17,17,17,17,17,17,17,17,17,17,17,17,17,17,17,17,17,17,17,17,17,17,17,17,17]","97","956","478","false","20","20","black","1","false","1","1","1920","956","ArrowLeft","staircase_motion","","","","","",""
"","","","","","html-keyboard-response","107","2666151","0.0-5.0-1.0-0.0-1.0-2.0-0.0-0.0-2.8","null","","null","<p style='font-size: 60px; color: red'>错误!</p>","","","","","","","","","","","","","","","","","","","","","","","","","","","","","","","","","","","","","","","","","","","","","","","","",""
"","","","","","html-keyboard-response","108","2667152","0.0-5.0-1.0-0.0-1.0-2.0-0.0-0.0-0.9","null","fixation","null","<p style='font-size: 48px; color: white'>+</p >","","","","","","","","","","","","","","","","","","","","","","","","","","","","","","","","","","","","","","","","","","","","","","","","",""
"","","","","","rdk","109","2669928","0.0-5.0-1.0-0.0-1.0-2.0-0.0-0.0-1.9","2290","motion_test","arrowright","","false","[""ArrowLeft"",""ArrowRight""]","ArrowLeft","-1","true","1","100","180","0.07","0","3","1","-1","2","300","300","[""white""]","[""hsl(0, 50%, 50%)"",""hsl(225, 50%, 50%)""]","0","0.5","0","circle","black","3","2","2","16.912408759124087","[10,17,17,17,17,17,17,17,17,17,17,17,17,17,17,17,17,17,17,17,17,17,17,17,17,17,17,17,17,17,17,17,17,17,17,16,17,17,17,17,17,17,17,16,17,17,17,17,17,17,17,17,17,17,17,17,17,17,17,17,17,16,17,17,17,17,17,17,17,17,17,17,17,17,17,17,17,17,17,17,16,17,17,17,17,17,17,17,16,17,17,17,17,17,17,17,17,17,17,17,17,17,17,17,17,17,17,17,17,17,17,17,17,17,17,17,17,17,17,17,17,17,17,17,17,17,17,17,17,17,17,17,17,17,17,17,17]","137","956","478","false","20","20","black","1","false","1","1","1920","956","ArrowLeft","staircase_motion","","","","","",""
"","","","","","html-keyboard-response","110","2670918","0.0-5.0-1.0-0.0-1.0-2.0-0.0-0.0-2.9","null","","null","<p style='font-size: 60px; color: red'>错误!</p>","","","","","","","","","","","","","","","","","","","","","","","","","","","","","","","","","","","","","","","","","","","","","","","","",""
"","","","","","html-keyboard-response","111","2671919","0.0-5.0-1.0-0.0-1.0-2.0-0.0-0.0-0.10","null","fixation","null","<p style='font-size: 48px; color: white'>+</p >","","","","","","","","","","","","","","","","","","","","","","","","","","","","","","","","","","","","","","","","","","","","","","","","",""
"","","","","","rdk","112","2675351","0.0-5.0-1.0-0.0-1.0-2.0-0.0-0.0-1.10","2946","motion_test","arrowleft","","false","[""ArrowLeft"",""ArrowRight""]","ArrowRight","-1","true","1","100","0","0.07","0","3","1","-1","2","300","300","[""white""]","[""hsl(0, 50%, 50%)"",""hsl(225, 50%, 50%)""]","0","0.5","0","circle","black","3","2","2","16.870056497175142","[10,17,17,17,17,17,17,17,17,16,17,17,17,17,17,17,17,17,17,17,17,17,17,17,17,16,17,17,17,17,17,17,16,17,17,17,17,17,17,17,17,17,17,17,17,17,17,17,17,17,17,17,17,17,16,17,16,17,17,17,17,17,17,17,17,17,17,17,17,17,17,17,17,17,17,17,16,17,17,17,17,17,16,17,17,17,17,17,17,17,17,17,17,17,17,17,17,17,17,17,17,17,17,17,17,16,17,17,17,17,16,17,17,17,17,17,17,17,16,17,17,17,17,17,17,17,16,17,17,17,17,17,17,17,17,17,17,17,17,17,17,17,16,17,17,17,17,17,17,16,17,17,17,17,17,17,17,17,17,17,16,17,16,17,17,17,17,17,17,17,17,17,17,16,17,17,17]","177","956","478","false","20","20","black","1","false","1","1","1920","956","ArrowRight","staircase_motion","","","","","",""
"","","","","","html-keyboard-response","113","2676352","0.0-5.0-1.0-0.0-1.0-2.0-0.0-0.0-2.10","null","","null","<p style='font-size: 60px; color: red'>错误!</p>","","","","","","","","","","","","","","","","","","","","","","","","","","","","","","","","","","","","","","","","","","","","","","","","",""
"","","","","","html-keyboard-response","114","2677352","0.0-5.0-1.0-0.0-1.0-2.0-0.0-0.0-0.11","null","fixation","null","<p style='font-size: 48px; color: white'>+</p >","","","","","","","","","","","","","","","","","","","","","","","","","","","","","","","","","","","","","","","","","","","","","","","","",""
"","","","","","rdk","115","2680632","0.0-5.0-1.0-0.0-1.0-2.0-0.0-0.0-1.11","2794","motion_test","arrowright","","true","[""ArrowLeft"",""ArrowRight""]","ArrowRight","-1","true","1","100","0","0.07","0","3","1","-1","2","300","300","[""white""]","[""hsl(0, 50%, 50%)"",""hsl(225, 50%, 50%)""]","0","0.5","0","circle","black","3","2","2","16.868263473053894","[9,17,17,17,17,16,17,17,17,17,17,17,17,17,17,17,17,17,17,17,17,17,17,17,17,17,17,17,17,17,17,17,17,16,17,17,17,17,17,17,17,17,17,17,17,17,17,17,17,17,16,17,17,17,17,17,17,17,17,17,17,17,17,17,17,17,17,17,17,16,17,17,17,17,17,17,17,17,17,17,17,17,17,17,17,17,16,17,17,17,17,16,17,17,17,17,17,17,17,17,17,17,17,17,17,17,17,17,17,16,17,17,16,17,17,16,17,17,17,16,17,17,16,17,17,17,17,17,17,16,17,17,17,17,17,17,17,17,17,17,17,17,17,17,17,17,17,17,17,17,17,17,17,16,17,17,17,17,17,17,17,17,17,17,16,17,17]","167","956","478","false","20","20","black","1","false","1","1","1920","956","ArrowRight","staircase_motion","","","","","",""
"","","","","","html-keyboard-response","116","2681636","0.0-5.0-1.0-0.0-1.0-2.0-0.0-0.0-2.11","null","","null","<p style='font-size: 60px; color: green'>正确!</p>","","","","","","","","","","","","","","","","","","","","","","","","","","","","","","","","","","","","","","","","","","","","","","","","",""
"","","","","","html-keyboard-response","117","2684135","0.0-5.0-1.0-0.0-1.0-2.0-0.0-1.0","null","","null","<p style='font-size: 35px; color: white'>您的正确率为： 42% 。平均反应时为：5255毫秒。</p>","","","","","","","","","","","","","","","","","","","","","","","","","","","","","","","","","","","","","","","","","","","","","","","","",""
"","","","","","html-keyboard-response","118","2685135","0.0-5.0-1.0-0.0-1.0-3.0-0.0-0.0-0.0","null","fixation","null","<p style='font-size: 48px; color: white'>+</p >","","","","","","","","","","","","","","","","","","","","","","","","","","","","","","","","","","","","","","","","","","","","","","","","",""
"","","","","","rdk","119","2732280","0.0-5.0-1.0-0.0-1.0-3.0-0.0-0.0-1.0","46657","motion_test","arrowright","","true","[""ArrowLeft"",""ArrowRight""]","ArrowRight","-1","true","1","100","0","0.1","0","3","1","-1","2","300","300","[""white""]","[""hsl(0, 50%, 50%)"",""hsl(225, 50%, 50%)""]","0","0.5","0","circle","black","3","2","2","16.911396927474097","[9,16,17,17,17,17,16,17,17,17,17,17,17,17,17,16,17,17,17,17,17,17,17,17,17,17,17,17,17,17,17,17,17,17,17,17,17,17,17,17,17,17,17,16,17,17,17,16,17,17,17,17,17,17,17,17,17,17,16,17,17,17,17,17,17,17,17,17,17,17,17,17,17,17,17,17,17,17,17,17,17,17,17,17,17,17,17,17,24,9,17,17,17,17,17,17,17,17,17,17,17,17,16,17,17,17,17,17,17,17,17,17,17,17,17,17,17,17,17,17,17,17,17,17,17,17,17,17,17,17,16,17,17,17,17,16,17,17,17,17,17,16,17,17,17,17,17,17,17,17,17,16,17,17,17,17,17,17,17,16,17,17,17,17,17,17,17,17,17,17,17,17,17,16,17,17,17,17,16,17,17,17,17,17,17,17,17,16,17,17,17,17,17,17,17,17,17,17,16,17,17,17,17,17,17,17,17,17,17,17,17,17,17,17,17,17,16,17,16,17,17,17,17,17,17,17,17,17,17,17,17,17,17,17,17,17,17,17,17,17,17,17,17,17,17,17,17,17,17,17,17,17,17,17,17,17,17,17,17,17,17,17,17,17,17,17,17,17,17,17,17,17,17,17,17,17,17,17,17,17,16,17,16,17,17,17,17,16,17,17,17,17,17,16,16,17,17,17,17,17,17,17,16,17,17,17,17,17,17,17,17,17,17,17,17,17,17,17,16,17,17,17,17,17,17,17,17,17,17,17,17,17,16,17,17,17,17,17,17,17,17,17,17,17,17,17,17,17,16,17,17,17,17,17,17,17,17,17,17,16,17,17,17,17,17,17,17,17,17,17,17,17,17,17,17,17,17,17,17,17,17,17,17,17,17,17,17,17,17,17,17,17,17,17,17,17,17,16,17,17,17,17,17,17,17,17,17,17,16,17,17,17,17,17,16,17,17,17,17,17,17,17,17,17,17,17,17,17,17,17,17,17,16,17,16,17,17,17,17,17,17,17,17,17,17,17,17,17,17,17,17,17,17,17,17,17,17,16,17,17,17,17,17,17,17,17,16,17,17,17,17,17,16,17,16,16,17,17,17,17,17,17,17,17,17,17,17,17,16,17,17,17,17,17,17,17,17,17,16,16,17,17,17,17,17,17,17,17,17,16,17,17,17,17,17,17,17,17,17,17,17,16,17,17,17,17,17,17,17,17,17,17,17,17,17,17,17,16,17,17,17,17,16,17,17,17,17,17,17,17,17,17,17,17,17,17,17,17,16,17,17,17,17,17,17,17,17,17,17,17,17,17,17,17,17,16,17,17,17,17,16,17,17,17,17,17,17,17,17,17,17,17,17,17,17,17,17,17,17,17,17,17,17,17,16,17,17,17,17,17,17,17,17,17,17,17,16,17,17,17,17,17,17,17,16,17,17,17,17,17,17,17,17,17,17,17,17,17,16,17,17,17,16,17,17,17,17,17,16,17,17,17,16,17,17,17,17,17,17,17,17,17,17,17,16,17,17,17,17,17,17,17,16,17,17,17,17,17,17,17,17,17,17,17,17,17,17,17,17,17,16,17,17,17,17,17,17,17,17,17,17,17,17,17,17,17,17,17,17,17,17,17,17,17,17,17,17,17,17,17,17,17,17,17,16,17,17,17,17,17,17,16,17,17,17,17,17,17,17,17,17,16,17,17,17,17,17,17,16,17,17,17,17,17,17,17,17,17,17,17,17,17,17,16,17,17,17,17,17,17,17,17,16,17,17,17,17,17,17,17,17,17,17,17,17,17,17,17,17,16,17,17,17,17,17,17,17,16,17,17,17,17,17,17,17,17,17,17,17,17,17,17,17,17,17,17,17,17,17,17,16,17,17,17,17,17,17,17,17,17,17,17,16,17,17,17,17,17,17,17,17,17,17,17,17,17,17,17,17,17,17,17,17,17,16,17,16,17,17,17,17,17,17,17,17,17,17,17,17,17,17,17,16,17,17,17,16,17,17,16,17,17,17,17,17,17,17,17,16,17,17,17,17,17,17,17,17,17,17,17,17,17,17,17,17,17,17,17,17,17,17,17,17,17,17,17,17,17,16,17,17,17,17,17,17,16,17,17,17,17,17,17,17,17,17,17,17,17,17,17,17,16,17,17,17,17,17,17,17,17,17,17,17,17,17,17,17,17,17,16,17,17,17,17,16,17,17,17,17,17,17,17,17,17,17,17,16,17,16,17,17,17,17,17,16,17,17,17,17,17,17,17,17,17,17,17,17,17,16,17,17,17,17,17,16,17,17,17,17,16,17,17,17,17,17,17,17,17,17,17,17,17,17,17,17,17,17,17,17,17,17,17,17,17,17,17,17,17,16,17,17,17,17,17,17,17,17,17,16,17,17,17,17,17,17,17,17,17,17,16,17,17,17,17,17,17,16,17,17,17,17,17,17,17,17,17,16,17,17,17,17,17,17,17,17,16,17,17,17,17,16,17,17,17,17,17,17,17,17,17,17,16,17,17,17,17,17,16,17,17,17,17,17,17,17,17,17,17,17,16,17,17,17,17,17,17,17,17,17,16,17,17,17,17,17,16,17,17,17,17,16,17,17,17,17,17,17,17,17,17,17,17,17,17,17,17,16,17,17,17,17,17,17,17,17,17,17,17,17,17,17,17,17,17,17,17,17,17,17,17,17,17,17,17,17,17,17,17,17,17,17,17,17,17,17,17,17,17,17,17,17,16,17,17,17,17,16,17,17,17,17,17,17,17,17,17,17,17,17,16,17,17,17,17,16,17,17,17,17,17,17,17,17,17,17,17,17,16,17,17,17,17,17,17,17,17,17,17,17,17,16,17,17,17,17,17,17,17,17,17,17,17,16,17,17,17,17,17,16,17,17,17,17,17,17,17,17,17,17,16,17,17,17,16,17,17,17,17,17,17,17,17,17,17,17,17,17,17,17,17,17,17,17,17,17,17,17,17,17,17,17,17,16,17,17,17,17,17,17,17,16,17,17,17,17,17,17,17,17,17,17,17,17,17,17,17,17,17,17,17,17,17,17,17,17,17,16,17,17,17,16,17,17,17,17,17,17,17,17,17,17,17,17,17,17,17,16,17,17,17,16,17,17,17,17,17,16,17,17,17,17,17,17,17,16,17,17,17,17,17,17,17,16,17,17,17,17,17,17,17,17,17,17,17,17,17,16,17,17,17,17,17,17,17,17,17,17,17,17,16,17,17,17,17,17,17,17,17,17,17,17,17,17,17,17,17,16,17,17,17,17,17,17,17,17,17,17,17,17,16,16,17,17,17,17,17,17,17,17,17,17,17,16,17,17,17,16,17,17,17,17,17,17,17,17,17,17,17,17,16,17,17,17,17,16,16,17,17,17,17,16,17,17,17,17,17,17,17,17,17,17,17,17,17,17,17,17,17,17,17,17,17,17,17,17,17,17,17,17,17,16,17,17,17,17,16,17,17,17,17,17,17,17,17,16,17,17,17,17,17,17,17,17,17,17,17,17,17,17,17,17,17,17,17,17,17,17,17,17,17,17,17,17,17,17,16,17,17,17,17,17,17,17,17,17,17,17,17,17,17,17,17,17,17,17,16,17,17,16,17,17,17,17,17,17,17,17,16,17,17,17,17,16,17,17,17,17,17,17,17,17,17,17,17,17,17,17,17,17,17,17,17,17,17,17,17,16,17,17,17,17,16,17,17,17,16,17,17,17,17,17,17,17,17,17,17,17,17,17,17,16,17,17,17,17,17,17,17,17,17,17,17,16,17,17,17,17,17,17,17,17,17,17,17,17,17,17,17,17,17,17,17,17,17,17,17,17,17,17,17,17,17,17,16,17,17,17,17,17,17,17,17,17,17,17,17,17,17,16,17,17,17,16,17,17,17,17,17,17,17,17,17,17,17,17,17,17,16,17,17,17,17,17,17,17,17,17,17,17,17,17,17,17,17,17,17,17,16,17,17,17,17,17,17,17,17,17,17,17,17,16,17,17,17,17,17,17,17,17,17,17,17,17,16,17,17,17,17,17,16,17,17,17,17,17,17,17,16,17,17,17,17,17,17,17,17,17,17,17,17,17,17,17,16,17,17,17,17,17,17,17,17,17,16,17,17,17,17,17,17,17,17,17,17,17,17,17,17,17,17,17,17,17,17,17,17,17,17,17,17,17,17,17,17,17,17,17,16,17,17,17,17,16,17,17,17,16,17,17,16,17,16,17,17,17,17,17,17,17,17,17,17,17,16,17,17,17,17,17,17,16,17,17,17,17,17,17,17,17,16,17,17,17,17,17,17,17,17,17,17,17,17,17,17,17,17,17,17,17,17,17,17,17,17,17,17,17,17,17,17,17,17,17,17,17,16,17,17,17,17,17,17,17,17,17,17,17,17,17,17,17,17,17,17,17,17,16,17,17,17,16,17,17,17,17,17,17,17,16,17,17,17,17,17,17,17,17,16,17,17,17,17,17,17,17,16,17,17,17,17,17,17,17,17,17,17,17,17,16,17,17,17,17,17,17,16,17,17,17,17,17,17,17,17,17,16,17,17,17,17,17,16,17,17,17,17,17,16,17,17,17,17,17,17,17,16,17,17,17,17,17,17,17,17,17,17,17,16,17,17,17,17,16,17,17,17,17,17,17,17,17,17,17,17,17,17,16,17,17,17,17,16,17,17,17,17,17,17,17,17,17,17,17,16,17,17,17,17,17,17,17,17,17,17,17,17,17,17,17,17,17,16,17,17,17,17,17,17,17,17,17,17,17,17,17,17,17,17,17,17,17,17,16,17,16,17,17,17,17,17,17,16,17,17,17,17,17,17,17,17,17,17,16,17,17,17,17,17,17,17,17,17,17,17,16,17,17,17,17,17,17,17,17,16,17,17,17,17,17,17,16,17,17,17,16,17,17,17,16,17,17,17,17,17,17,17,17,17,17,17,17,17,17,17,17,17,16,17,17,17,17,17,17,17,16,17,17,17,17,17,17,17,17,17,17,17,17,17,17,17,17,17,17,17,17,17,17,17,16,17,17,17,17,17,17,17,17,17,17,17,17,16,17,17,17,17,17,17,17,17,17,16,17,17,17,17,17,17,17,17,17,17,16,17,17,17,17,17,17,17,17,17,17,17,17,17,16,17,17,17,17,17,17,17,17,17,17,17,17,17,17,17,17,17,17,17,17,17,17,17,17,17,16,17,17,17,16,17,17,17,17,17,17,17,16,17,17,17,17,17,17,17,17,17,17,17,17,17,17,17,17,16,17,17,17,17,17,17,17,17,17,17,16,17,17,17,17,16,17,17,17,17,17,17,16,17,16,17,17,17,17,17,17,17,17,17,17,17,17,17,17,17,17,17,17,17,17,17,17,17,17,17,17,17,17,17,17,17,17,17,17,17,17,17,17,17,17,17,17,17,17,17,17,17,17,17,17,17,17,17,17,17,17,17,17,17,17,17,17,16,17,17,17,17,17,17,17,17,17,17,17,17,17,17,17,17,17,17,17,17,17,17,17,17,17,17,17,17,16,17,17,17,17,17,17,17,17,17,17,17,16,16,17,17,17,17,17,17,17,17,17,17,17,17,17,17,17,17,17,17,17,17,17,17,17,17,17,16,17,17,17,17,17,17,17,17,17,17,17,17,17,17,17,17,17,17,17,17,17,17,17,17,17,17,16,17,17,17,17,17,17,17,17,17,17,17,17,17,17,17,16,17,17,17,17,17,17,17,17,17,17,16,16,17,17,17,17,17,17,17,17,17,17,17,17,16,17,17,17,17,17,17,16,17,17,17,17,17,17,17,17,17,16,17,17,17,17,17,17,17,17,17,17,17,17,17,17,17,17,17,17,17,17,17,17,17,17,17,17,17,17,17,17,17,17,17,17,16,16,17,17,17,17,17,17,17,17,17,17,17,17,17,17,17,17,17,17,17,17,17,17,17,17,17,17,17,17,16,17,17,17,17,17,17,17,17,17,17,17,17,17,16,17,17,17,16,17,17,17,16,17,17,16,17,17,17,17,17,17,17,17,17,16,17,17,17,17,17,17,17,17,17,17,17,16,17,17,17,17,17,17,17,17,17,16,17,17,17,17,17,17,16,17,17,17,17,17,17,16,16,17,17,17,17,16,17,17,17,17,17,17,17,17,17,17,17,17,17,17,17,17,17,16,16,17,17,17,16,17,17,17,17,17,16,17,17,17,17,17,17,16,17,17,17,17,17,17,17,17,17,17,17,17,17,17,17,17,17,17,17,17,17,17,17,16,17,17,17,17,17,17,16,18,16,17,17,17,17,17,17,17,17,16,17,17,17,17,17,17,17,17,17,17,17,16,16,17,17,17]","2799","956","478","false","20","20","black","1","false","1","1","1920","956","ArrowRight","staircase_motion","","","","","",""
"","","","","","html-keyboard-response","120","2733268","0.0-5.0-1.0-0.0-1.0-3.0-0.0-0.0-2.0","null","","null","<p style='font-size: 60px; color: green'>正确!</p>","","","","","","","","","","","","","","","","","","","","","","","","","","","","","","","","","","","","","","","","","","","","","","","","",""
"","","","","","html-keyboard-response","121","2734268","0.0-5.0-1.0-0.0-1.0-3.0-0.0-0.0-0.1","null","fixation","null","<p style='font-size: 48px; color: white'>+</p >","","","","","","","","","","","","","","","","","","","","","","","","","","","","","","","","","","","","","","","","","","","","","","","","",""
"","","","","","rdk","122","2737976","0.0-5.0-1.0-0.0-1.0-3.0-0.0-0.0-1.1","3221","motion_test","arrowleft","","false","[""ArrowLeft"",""ArrowRight""]","ArrowRight","-1","true","1","100","0","0.1","0","3","1","-1","2","300","300","[""white""]","[""hsl(0, 50%, 50%)"",""hsl(225, 50%, 50%)""]","0","0.5","0","circle","black","3","2","2","16.865284974093264","[9,17,17,17,17,17,17,17,17,17,17,17,17,17,17,17,17,17,17,17,17,17,17,16,17,17,17,17,16,17,17,17,17,17,17,17,16,17,17,17,17,17,17,17,17,17,17,17,17,17,17,17,17,17,17,17,17,17,17,17,17,17,17,17,17,17,16,17,17,17,17,17,17,17,17,17,17,17,17,17,16,17,17,17,17,17,17,16,17,17,16,17,17,17,17,17,17,17,17,17,17,17,16,17,17,16,16,17,17,17,17,17,17,17,17,17,17,17,17,17,17,17,17,17,17,17,17,17,17,17,17,17,17,17,17,17,17,17,17,17,17,17,17,17,16,17,17,17,17,16,17,16,17,17,17,17,17,17,17,17,17,16,17,16,17,17,17,17,17,17,16,17,17,17,17,17,17,17,17,17,16,17,17,17,17,17,16,17,17,17,17,17,17]","193","956","478","false","20","20","black","1","false","1","1","1920","956","ArrowRight","staircase_motion","","","","","",""
"","","","","","html-keyboard-response","123","2738969","0.0-5.0-1.0-0.0-1.0-3.0-0.0-0.0-2.1","null","","null","<p style='font-size: 60px; color: red'>错误!</p>","","","","","","","","","","","","","","","","","","","","","","","","","","","","","","","","","","","","","","","","","","","","","","","","",""
"","","","","","html-keyboard-response","124","2739968","0.0-5.0-1.0-0.0-1.0-3.0-0.0-0.0-0.2","null","fixation","null","<p style='font-size: 48px; color: white'>+</p >","","","","","","","","","","","","","","","","","","","","","","","","","","","","","","","","","","","","","","","","","","","","","","","","",""
"","","","","","rdk","125","2745063","0.0-5.0-1.0-0.0-1.0-3.0-0.0-0.0-1.2","4607","motion_test","arrowleft","","true","[""ArrowLeft"",""ArrowRight""]","ArrowLeft","-1","true","1","100","180","0.1","0","3","1","-1","2","300","300","[""white""]","[""hsl(0, 50%, 50%)"",""hsl(225, 50%, 50%)""]","0","0.5","0","circle","black","3","2","2","16.880434782608695","[8,17,17,17,17,17,16,17,17,17,17,17,17,17,17,17,17,17,17,16,17,17,17,17,17,17,17,17,17,17,16,17,17,17,17,17,17,17,17,17,17,17,17,17,17,17,17,17,17,17,17,16,17,17,17,17,17,17,17,17,17,17,17,17,17,17,17,17,17,17,17,17,17,17,17,17,17,17,17,17,17,17,16,17,17,17,17,17,17,17,17,17,17,17,17,17,17,17,17,17,17,17,17,17,17,17,17,17,17,17,17,17,17,17,17,17,17,17,17,17,17,17,17,17,17,17,16,17,17,17,17,17,17,17,17,17,17,17,17,17,17,16,17,16,17,17,17,17,17,17,17,17,16,17,17,17,17,17,17,16,17,16,17,17,17,17,17,17,17,17,17,17,17,17,17,17,17,17,17,17,17,17,16,16,17,17,17,17,16,17,17,17,16,17,17,16,17,17,17,17,17,17,16,17,17,17,17,17,17,17,17,16,17,17,17,17,17,17,17,17,17,17,17,17,16,17,17,17,17,17,17,17,16,17,17,17,17,17,17,17,16,17,16,16,17,17,17,17,17,17,17,17,17,17,17,17,17,17,17,17,17,17,17,17,17,17,17,17,17,17,17,17,16,17,17,17]","276","956","478","false","20","20","black","1","false","1","1","1920","956","ArrowLeft","staircase_motion","","","","","",""
"","","","","","html-keyboard-response","126","2746052","0.0-5.0-1.0-0.0-1.0-3.0-0.0-0.0-2.2","null","","null","<p style='font-size: 60px; color: green'>正确!</p>","","","","","","","","","","","","","","","","","","","","","","","","","","","","","","","","","","","","","","","","","","","","","","","","",""
"","","","","","html-keyboard-response","127","2747052","0.0-5.0-1.0-0.0-1.0-3.0-0.0-0.0-0.3","null","fixation","null","<p style='font-size: 48px; color: white'>+</p >","","","","","","","","","","","","","","","","","","","","","","","","","","","","","","","","","","","","","","","","","","","","","","","","",""
"","","","","","rdk","128","2749640","0.0-5.0-1.0-0.0-1.0-3.0-0.0-0.0-1.3","2101","motion_test","arrowleft","","true","[""ArrowLeft"",""ArrowRight""]","ArrowLeft","-1","true","1","100","180","0.1","0","3","1","-1","2","300","300","[""white""]","[""hsl(0, 50%, 50%)"",""hsl(225, 50%, 50%)""]","0","0.5","0","circle","black","3","2","2","16.896825396825395","[10,17,16,17,17,17,17,17,17,16,17,17,17,17,17,17,17,17,17,17,17,17,17,17,17,17,17,17,17,17,17,17,17,17,17,17,17,17,17,17,17,17,17,17,17,17,17,17,17,17,17,17,17,17,17,17,17,17,17,17,17,17,17,17,17,17,17,17,17,17,17,17,17,17,17,17,17,17,17,17,17,17,17,17,17,17,17,17,16,17,17,17,17,17,17,17,17,17,17,17,17,17,17,17,17,17,17,16,17,16,16,17,17,17,17,17,17,17,17,17,17,17,17,17,17,17]","126","956","478","false","20","20","black","1","false","1","1","1920","956","ArrowLeft","staircase_motion","","","","","",""
"","","","","","html-keyboard-response","129","2750634","0.0-5.0-1.0-0.0-1.0-3.0-0.0-0.0-2.3","null","","null","<p style='font-size: 60px; color: green'>正确!</p>","","","","","","","","","","","","","","","","","","","","","","","","","","","","","","","","","","","","","","","","","","","","","","","","",""
"","","","","","html-keyboard-response","130","2751636","0.0-5.0-1.0-0.0-1.0-3.0-0.0-0.0-0.4","null","fixation","null","<p style='font-size: 48px; color: white'>+</p >","","","","","","","","","","","","","","","","","","","","","","","","","","","","","","","","","","","","","","","","","","","","","","","","",""
"","","","","","rdk","131","2758264","0.0-5.0-1.0-0.0-1.0-3.0-0.0-0.0-1.4","6142","motion_test","arrowleft","","true","[""ArrowLeft"",""ArrowRight""]","ArrowLeft","-1","true","1","100","180","0.1","0","3","1","-1","2","300","300","[""white""]","[""hsl(0, 50%, 50%)"",""hsl(225, 50%, 50%)""]","0","0.5","0","circle","black","3","2","2","16.902173913043477","[9,17,17,17,17,17,17,17,17,17,17,17,17,17,17,16,17,17,17,17,17,17,17,17,17,17,17,17,16,17,17,17,17,17,17,17,17,17,17,17,16,17,17,17,16,17,17,17,17,17,17,17,17,17,17,17,17,17,17,17,17,17,17,17,16,17,16,17,17,17,17,17,17,17,17,17,17,17,17,17,17,17,17,17,17,17,16,17,17,17,17,17,17,17,17,17,17,17,17,17,17,17,17,16,17,17,17,17,17,17,17,17,17,17,17,16,16,17,17,17,17,17,17,17,17,17,17,16,17,17,17,17,17,17,17,17,17,17,17,17,17,17,17,17,16,17,17,17,16,17,17,17,17,17,17,17,17,17,16,17,17,17,17,17,17,17,17,17,17,17,17,17,17,17,17,17,17,16,17,17,17,17,17,17,16,17,16,17,17,17,17,17,17,17,17,17,17,17,17,17,17,16,17,17,17,17,16,17,17,17,17,17,17,17,17,17,17,17,17,17,17,17,17,17,17,17,17,17,17,17,17,17,17,17,17,17,17,17,17,17,17,17,17,17,16,17,17,17,17,17,17,17,17,17,17,17,17,17,17,17,17,17,17,17,17,16,17,17,17,17,17,17,17,17,17,17,17,17,17,17,17,17,17,17,17,17,16,17,17,17,17,17,17,17,17,17,17,17,17,17,17,17,16,17,17,17,17,17,17,17,17,17,17,17,16,17,17,17,17,17,17,17,17,16,17,17,17,17,17,17,17,17,17,17,17,17,17,17,17,17,16,17,17,17,17,17,16,17,17,17,17,17,17,17,17,17,17,17,17,16,17,17,17,17,17,17,17,17]","368","956","478","false","20","20","black","1","false","1","1","1920","956","ArrowLeft","staircase_motion","","","","","",""
"","","","","","html-keyboard-response","132","2759252","0.0-5.0-1.0-0.0-1.0-3.0-0.0-0.0-2.4","null","","null","<p style='font-size: 60px; color: green'>正确!</p>","","","","","","","","","","","","","","","","","","","","","","","","","","","","","","","","","","","","","","","","","","","","","","","","",""
"","","","","","html-keyboard-response","133","2760252","0.0-5.0-1.0-0.0-1.0-3.0-0.0-0.0-0.5","null","fixation","null","<p style='font-size: 48px; color: white'>+</p >","","","","","","","","","","","","","","","","","","","","","","","","","","","","","","","","","","","","","","","","","","","","","","","","",""
"","","","","","rdk","134","2764758","0.0-5.0-1.0-0.0-1.0-3.0-0.0-0.0-1.5","4019","motion_test","arrowleft","","false","[""ArrowLeft"",""ArrowRight""]","ArrowRight","-1","true","1","100","0","0.1","0","3","1","-1","2","300","300","[""white""]","[""hsl(0, 50%, 50%)"",""hsl(225, 50%, 50%)""]","0","0.5","0","circle","black","3","2","2","16.87551867219917","[9,17,16,17,17,17,17,17,17,17,17,17,17,17,17,17,17,17,17,17,17,17,16,17,17,17,17,16,17,17,17,17,17,17,17,17,17,17,17,17,16,17,17,17,17,17,17,17,17,17,17,17,17,17,17,17,17,16,17,17,17,17,17,17,17,16,17,17,17,17,17,17,17,17,17,17,17,17,17,17,17,17,17,17,17,17,16,16,17,17,17,17,17,17,17,16,17,17,17,17,17,17,17,17,17,17,17,17,17,16,17,17,16,17,17,17,17,17,17,17,17,17,17,17,17,16,17,17,17,17,17,17,17,17,17,17,16,17,17,17,17,17,17,16,17,17,17,17,17,17,17,17,17,17,17,17,17,17,17,17,17,17,17,17,17,17,17,17,17,17,17,17,17,17,17,16,17,17,17,17,17,17,17,17,17,17,16,17,17,17,17,17,17,17,17,17,17,16,16,17,17,17,17,17,17,17,17,17,17,17,17,17,17,17,17,17,17,17,17,16,17,17,17,17,17,17,17,17,17,17,17,17,16,17,17,17,17,17,16,17,16]","241","956","478","false","20","20","black","1","false","1","1","1920","956","ArrowRight","staircase_motion","","","","","",""
"","","","","","html-keyboard-response","135","2765752","0.0-5.0-1.0-0.0-1.0-3.0-0.0-0.0-2.5","null","","null","<p style='font-size: 60px; color: red'>错误!</p>","","","","","","","","","","","","","","","","","","","","","","","","","","","","","","","","","","","","","","","","","","","","","","","","",""
"","","","","","html-keyboard-response","136","2766753","0.0-5.0-1.0-0.0-1.0-3.0-0.0-0.0-0.6","null","fixation","null","<p style='font-size: 48px; color: white'>+</p >","","","","","","","","","","","","","","","","","","","","","","","","","","","","","","","","","","","","","","","","","","","","","","","","",""
"","","","","","rdk","137","2772856","0.0-5.0-1.0-0.0-1.0-3.0-0.0-0.0-1.6","5616","motion_test","arrowright","","true","[""ArrowLeft"",""ArrowRight""]","ArrowRight","-1","true","1","100","0","0.1","0","3","1","-1","2","300","300","[""white""]","[""hsl(0, 50%, 50%)"",""hsl(225, 50%, 50%)""]","0","0.5","0","circle","black","3","2","2","16.893175074183976","[8,17,17,17,17,16,17,17,17,17,17,17,17,17,17,17,17,17,17,17,17,17,17,17,17,17,17,17,17,17,17,17,17,17,17,17,17,17,17,17,17,17,17,17,17,17,17,17,17,17,17,17,17,17,17,17,17,17,17,17,17,17,17,17,17,17,17,17,17,17,17,17,17,17,17,16,17,17,17,17,17,17,17,16,17,17,17,17,17,17,16,17,17,17,17,17,17,17,17,17,16,17,17,17,17,17,17,17,17,17,17,17,17,16,17,17,17,17,17,17,17,17,17,17,17,17,17,17,17,17,17,17,17,17,16,17,17,17,17,17,16,17,17,17,17,17,17,17,16,17,17,17,17,17,17,17,17,17,17,17,17,17,17,17,17,17,17,16,17,17,17,17,16,17,17,17,17,17,16,17,17,17,17,17,17,16,17,17,17,17,17,17,17,17,17,17,17,17,17,17,17,16,17,17,17,17,17,17,17,17,17,16,17,17,17,17,17,17,17,17,17,17,17,16,17,17,17,17,17,17,17,17,17,17,16,17,17,17,17,17,17,17,17,17,17,17,17,17,17,17,17,17,17,16,17,17,17,17,17,17,17,17,17,16,16,17,17,17,17,17,17,16,16,17,17,17,17,17,17,17,17,17,17,17,17,17,17,17,17,17,17,17,16,17,17,17,17,16,17,17,17,17,17,17,17,16,17,17,17,17,17,17,17,17,17,17,17,17,17,17,17,17,17,16,17,17,17,17,17,17,17,17,17,17,17,16,17]","337","956","478","false","20","20","black","1","false","1","1","1920","956","ArrowRight","staircase_motion","","","","","",""
"","","","","","html-keyboard-response","138","2773853","0.0-5.0-1.0-0.0-1.0-3.0-0.0-0.0-2.6","null","","null","<p style='font-size: 60px; color: green'>正确!</p>","","","","","","","","","","","","","","","","","","","","","","","","","","","","","","","","","","","","","","","","","","","","","","","","",""
"","","","","","html-keyboard-response","139","2774837","0.0-5.0-1.0-0.0-1.0-3.0-0.0-0.0-0.7","null","fixation","null","<p style='font-size: 48px; color: white'>+</p >","","","","","","","","","","","","","","","","","","","","","","","","","","","","","","","","","","","","","","","","","","","","","","","","",""
"","","","","","rdk","140","2778983","0.0-5.0-1.0-0.0-1.0-3.0-0.0-0.0-1.7","3662","motion_test","arrowright","","false","[""ArrowLeft"",""ArrowRight""]","ArrowLeft","-1","true","1","100","180","0.1","0","3","1","-1","2","300","300","[""white""]","[""hsl(0, 50%, 50%)"",""hsl(225, 50%, 50%)""]","0","0.5","0","circle","black","3","2","2","16.868181818181817","[9,17,17,17,17,17,17,16,17,17,17,16,17,17,17,17,17,17,17,17,17,17,16,17,17,17,16,17,17,16,17,17,17,17,17,17,16,17,17,17,17,17,17,17,17,17,16,17,17,17,17,17,16,17,17,17,17,17,17,17,17,17,17,17,17,17,17,17,17,17,17,17,17,17,17,17,17,17,17,17,17,16,17,17,17,17,17,17,17,17,17,17,17,17,17,17,17,17,17,17,17,17,17,17,17,16,17,17,17,17,17,17,17,17,17,17,17,16,17,17,17,17,17,17,17,17,17,17,17,17,17,17,17,17,17,17,17,17,17,17,16,17,17,17,16,17,17,17,17,17,17,17,17,17,17,17,17,17,17,17,17,17,17,17,17,17,17,17,17,17,17,17,17,16,17,17,17,16,17,17,17,17,17,17,17,17,17,16,17,17,17,17,16,17,17,17,17,17,16,17,16,17,16,17,17,17,17,17,17,17,17,17,17,17,17,17,17,16,17,17]","220","956","478","false","20","20","black","1","false","1","1","1920","956","ArrowLeft","staircase_motion","","","","","",""
"","","","","","html-keyboard-response","141","2779985","0.0-5.0-1.0-0.0-1.0-3.0-0.0-0.0-2.7","null","","null","<p style='font-size: 60px; color: red'>错误!</p>","","","","","","","","","","","","","","","","","","","","","","","","","","","","","","","","","","","","","","","","","","","","","","","","",""
"","","","","","html-keyboard-response","142","2780986","0.0-5.0-1.0-0.0-1.0-3.0-0.0-0.0-0.8","null","fixation","null","<p style='font-size: 48px; color: white'>+</p >","","","","","","","","","","","","","","","","","","","","","","","","","","","","","","","","","","","","","","","","","","","","","","","","",""
