"success","timeout","failed_images","failed_audio","failed_video","trial_type","trial_index","time_elapsed","internal_node_id","rt","part","response","stimulus","correct","choices","correct_choice","trial_duration","response_ends_trial","number_of_apertures","number_of_dots","coherent_direction","coherence","opposite_coherence","dot_radius","dot_side_length","dot_life","move_distance","aperture_width","aperture_height","dot_color","dot_color_final","color_change_delay","target_color_proportion","motion_change_delay","dot_shape","background_color","RDK_type","aperture_type","reinsert_type","frame_rate","frame_rate_array","number_of_frames","aperture_center_x","aperture_center_y","fixation_cross","fixation_cross_width","fixation_cross_height","fixation_cross_color","fixation_cross_thickness","border","border_thickness","border_color","canvas_width","canvas_height","correct_response","data_label","task","difficulty","isMatch","association","label","task_type"
"true","false","[]","[]","[]","preload","0","20","0.0-0.0","","","","","","","","","","","","","","","","","","","","","","","","","","","","","","","","","","","","","","","","","","","","","","","","","","","","",""
"true","","","","","fullscreen","1","2182696","0.0-1.0","2180762","fullScreen","","","","","","","","","","","","","","","","","","","","","","","","","","","","","","","","","","","","","","","","","","","","","","","","","","",""
"","","","","","survey","2","2191785","0.0-2.0","8119","survey","{""sex"":""女"",""age"":22,""hands"":""右"",""color_blindness"":""都不是""}","","","","","","","","","","","","","","","","","","","","","","","","","","","","","","","","","","","","","","","","","","","","","","","","","",""
"","","","","","survey-text","3","2202798","0.0-3.0","10078","color_test","{""Q0"":""BE""}","","","","","","","","","","","","","","","","","","","","","","","","","","","","","","","","","","","","","","","","","","","","","","","","","",""
"","","","","","html-keyboard-response","4","2237607","0.0-4.0","33899","instruction_beginning"," ","
      <div style=""text-align: left; color: white"">
        <h3 style=""text-align: center; font-size: 30px; margin: 0;"">欢迎参与本实验</h3>
          <p>为充分保障您的权利，请确保您已经知晓并同意《参与实验同意书》以及《数据公开知情同意书》，</p>
          <p>如果您未见过上述内容，请咨询实验员 ，</p>
          <p>如果您选择继续实验，则表示您已经清楚两份知情同意书的内容并同意 。</p>
          <p>在整个实验中，您需要完成三项任务，具体的任务要求会在后面说明 ，</p>
          <p>请按空格键进入实验</p >
      </div>","","","","","","","","","","","","","","","","","","","","","","","","","","","","","","","","","","","","","","","","","","","","","","","","",""
"","","","","","html-keyboard-response","5","2306999","0.0-5.0-0.0","68486","instruction_getThreshold"," ","
    <div style=""text-align: left; color: white; padding: 10px""> 
      <h3 style=""text-align: center; font-size: 30px; margin: 10px"">欢迎进入实验！请仔细阅读以下文字</h3>
      <p>在正式开始前，我们将通过一个快速测试为您制定合适的难度水平。<p>
      <p>接下来，屏幕上会呈现一些运动的彩色圆点，</p>
      <p>如果任务要求您<span style=""font-weight: bold"">判断散点图的一致运动方向</span><p>
      <p>您需要<span style=""font-weight: bold"">忽略点的颜色</span>并判断一致的运动方向是向左还是向右:</p >
      <ul>
        <li><span style=""font-weight: bold"">向左</span>，请按<span style=""font-weight: bold"">键盘左键 <— </span></li>
        <li><span style=""font-weight: bold"">向右</span>，请按<span style=""font-weight: bold"">键盘右键 —> </span> </li>
      </ul>
      <p>如果任务要求您<span style=""font-weight: bold"">判断散点图的整体颜色（即大多数点的颜色）是红色还是蓝色</span><p>
      <p>您需要<span style=""font-weight: bold"">忽略点的运动方向</span>并判断整体颜色:</p >
      <ul>
          <li>整体为 <span style=""color: hsl(0, 50%, 50%)"">红色</span>，请按键盘 <span style=""color: hsl(0, 50%, 50%)"">""D"" 键</span></li>
          <li>整体为 <span style=""color: hsl(225, 50%, 50%)"">蓝色</span>，请按键盘 <span style=""color: hsl(225, 50%, 50%)"">""k"" 键</span> </li>
        </ul>
      <p>如有疑问请向主试咨询，没有则按下空格键开始</p>
    </div>","","","","","","","","","","","","","","","","","","","","","","","","","","","","","","","","","","","","","","","","","","","","","","","","",""
"","","","","","html-keyboard-response","6","2312950","0.0-5.0-1.0-0.0-0.0","5036","instruction_taskSeparate"," ","
    <div style=""text-align: left; color: white; padding: 10px""> 
      <p>现在是运动方向判断</p>
      <p>您需要<span style=""font-weight: bold"">忽略点的颜色</span>并判断一致的运动方向是向左还是向右:</p >
        <ul>
          <li><span style=""font-weight: bold"">向左</span>，请按键盘 <span style=""font-weight: bold"">左键</span></li>
          <li><span style=""font-weight: bold"">向右</span>，请按键盘 <span style=""font-weight: bold"">右键</span> </li>
        </ul>
      <p>准备好后请按空格键开始</p>
    </div>","","","","","","","","","","","","","","","","","","","","","","","","","","","","","","","","","","","","","","","","","","","","","","","","",""
"","","","","","html-keyboard-response","7","2314376","0.0-5.0-1.0-0.0-1.0-0.0-0.0-0.0-0.0","null","fixation","null","<p style='font-size: 48px; color: white'>+</p >","","","","","","","","","","","","","","","","","","","","","","","","","","","","","","","","","","","","","","","","","","","","","","","","",""
"","","","","","rdk","8","2358544","0.0-5.0-1.0-0.0-1.0-0.0-0.0-0.0-1.0","43247","motion_test","arrowright","","true","[""ArrowLeft"",""ArrowRight""]","ArrowRight","-1","true","1","100","0","0.1","0","3","1","-1","2","300","300","[""white""]","[""hsl(0, 50%, 50%)"",""hsl(225, 50%, 50%)""]","0","0.5","0","circle","black","3","2","2","16.911719352351582","[16,16,17,17,17,17,17,17,17,17,16,17,17,16,17,17,17,17,16,17,17,17,17,17,17,17,17,17,17,17,17,17,17,17,17,17,17,17,17,17,17,17,17,17,17,17,17,17,17,17,17,17,17,17,17,17,16,17,17,17,17,17,17,17,16,17,17,17,17,17,17,17,17,17,17,17,17,17,16,17,17,17,17,17,17,16,17,17,17,17,16,17,17,16,17,17,17,17,17,17,17,17,17,17,17,17,17,17,16,17,16,17,17,17,17,16,17,17,17,17,17,17,17,17,17,17,17,17,17,17,17,17,17,17,17,16,17,17,17,17,17,17,17,17,17,17,17,17,17,17,17,17,17,17,17,17,17,17,17,17,17,16,17,17,17,16,17,17,17,17,16,17,17,17,17,17,17,17,17,17,17,17,17,17,17,16,17,17,17,17,16,17,17,17,17,17,17,17,17,17,17,17,17,17,17,17,17,17,16,17,17,17,17,17,17,17,17,16,17,17,17,17,17,17,17,17,17,17,17,17,17,16,17,17,17,17,17,17,17,17,17,17,17,16,17,16,17,17,17,17,17,17,17,17,17,17,17,17,16,17,17,16,17,17,17,17,17,17,17,17,17,17,17,16,17,17,17,17,17,17,17,17,17,17,17,17,17,17,16,17,17,17,17,17,17,16,17,17,17,17,17,17,17,16,16,17,17,17,17,17,17,17,17,17,17,17,17,17,16,17,17,17,17,17,17,17,17,17,17,17,17,17,16,17,17,17,17,17,17,17,17,17,17,17,17,16,17,17,17,17,17,17,17,17,17,17,17,17,16,17,17,17,17,17,17,17,16,17,17,17,17,17,17,17,17,17,17,17,17,17,17,16,17,17,17,17,17,17,17,17,17,17,17,17,17,17,17,17,17,16,17,17,17,17,17,17,17,17,17,17,17,17,17,16,17,17,17,17,17,16,17,17,17,17,17,17,17,17,16,17,17,17,17,17,17,17,17,17,17,17,17,17,17,17,17,17,17,17,17,17,17,16,17,17,17,17,17,17,17,17,16,17,17,17,17,17,17,17,17,17,17,17,17,17,17,17,16,17,17,17,16,17,17,17,17,17,16,17,17,17,17,17,17,17,17,16,17,17,17,17,17,17,17,17,17,17,17,17,17,17,17,17,17,17,17,17,17,17,17,17,17,17,17,17,15,17,17,17,17,17,17,17,17,17,17,17,16,17,17,17,17,17,17,17,17,17,17,17,17,17,17,16,17,17,17,17,17,17,17,17,17,17,17,17,17,17,17,17,17,17,17,17,17,16,17,17,17,17,17,17,17,16,17,16,17,17,17,17,17,17,17,17,17,16,17,17,17,17,17,17,17,17,17,17,17,17,17,17,16,17,17,17,17,17,17,16,17,17,17,17,16,17,16,17,17,17,17,17,17,17,17,17,17,17,17,16,17,17,17,17,16,17,17,17,17,17,17,17,17,17,17,17,17,17,17,17,17,17,17,17,17,17,16,17,17,17,17,17,17,17,16,17,17,17,17,17,17,17,17,17,17,17,17,17,17,17,17,17,17,16,17,17,17,17,17,17,17,17,17,17,17,17,17,16,17,17,17,17,17,17,16,17,17,17,17,17,17,17,17,17,16,17,17,17,17,16,17,17,17,17,17,17,17,17,17,17,17,17,17,17,17,17,17,17,17,16,17,17,17,17,17,17,17,17,17,17,17,17,17,16,17,17,17,17,17,17,17,16,17,17,17,17,17,16,17,17,17,17,17,17,17,17,17,17,17,17,17,16,17,17,17,17,17,17,17,17,17,17,17,17,17,17,17,17,17,17,17,17,17,17,17,17,17,17,17,16,17,17,17,17,17,17,17,17,17,17,17,17,17,17,17,17,17,17,17,17,17,17,17,17,17,17,16,17,17,17,17,17,17,17,17,17,17,17,17,17,17,16,17,17,17,17,17,17,17,17,16,17,17,17,16,17,17,17,17,17,17,17,17,17,17,17,17,17,17,17,17,17,17,17,17,17,17,17,17,17,17,17,17,17,17,17,17,17,17,17,17,16,17,17,17,17,17,17,17,16,17,17,17,17,17,17,17,16,17,17,17,17,16,16,17,17,17,17,17,17,17,17,17,17,17,17,16,17,17,17,17,17,17,17,17,16,17,17,17,16,17,17,17,17,17,17,17,17,17,17,17,17,16,17,17,16,17,16,17,17,17,17,17,17,17,17,16,17,17,17,16,17,17,17,17,17,17,17,17,17,17,17,17,17,17,17,17,17,17,17,17,17,17,16,17,17,17,17,17,17,17,17,17,17,17,16,17,16,17,17,17,17,17,17,17,17,17,17,17,17,16,17,17,17,17,17,17,17,17,17,17,17,17,16,17,17,17,17,17,17,17,17,16,17,16,17,16,17,17,17,17,17,16,17,17,17,17,17,17,17,16,16,17,17,17,17,17,17,17,17,17,17,17,17,16,17,17,17,17,17,17,17,17,17,17,17,17,17,16,17,17,17,17,17,17,17,17,17,17,17,17,17,16,17,17,17,17,17,17,17,17,17,17,16,17,17,17,17,17,17,17,17,17,17,17,17,17,17,17,17,17,17,17,17,17,17,17,17,17,16,17,17,17,17,17,17,17,17,17,17,17,17,17,17,17,17,17,16,17,17,17,17,17,17,17,17,17,17,17,17,17,17,16,17,17,17,17,17,17,17,17,17,17,17,17,17,16,17,17,17,17,17,17,17,17,17,17,17,16,17,16,17,17,16,17,17,17,17,16,17,17,17,17,16,17,17,17,17,16,17,17,17,17,17,17,17,16,17,16,17,17,17,17,17,17,17,17,17,17,17,17,16,17,17,17,17,17,17,17,17,17,17,17,16,17,17,17,17,17,16,17,17,17,17,17,17,16,17,17,17,17,17,17,17,17,17,17,17,17,17,16,17,17,17,17,17,17,17,17,17,17,17,17,17,16,17,17,17,17,17,17,17,17,17,17,17,17,16,17,17,17,17,17,17,17,17,17,17,17,17,17,17,16,17,17,17,17,17,17,17,17,17,17,17,17,17,17,17,17,17,17,17,17,17,17,17,17,17,16,16,17,17,17,17,17,17,16,17,17,17,17,17,17,16,17,17,17,17,17,17,17,17,17,17,17,17,16,17,17,17,17,17,17,17,17,17,17,16,17,17,17,17,17,17,17,17,16,17,17,17,17,17,17,17,17,17,17,17,17,17,17,17,17,17,17,17,17,16,17,17,17,17,17,17,17,17,17,17,17,16,17,17,17,16,17,17,17,17,17,17,17,17,17,17,17,17,17,17,17,17,17,17,17,17,17,17,16,17,17,17,17,17,17,17,17,17,17,17,17,17,17,17,17,17,17,17,17,17,16,17,17,17,17,17,17,17,16,17,17,17,17,17,17,17,17,17,17,17,17,17,16,17,17,17,17,17,17,17,17,17,17,17,17,17,17,16,17,17,17,17,17,17,16,17,17,17,17,17,17,17,17,17,17,17,17,17,17,17,17,17,17,17,17,17,17,17,17,17,17,17,17,17,17,17,17,17,17,17,17,17,17,17,17,17,17,17,17,17,17,17,16,17,17,17,17,17,17,17,17,17,17,17,17,17,17,17,16,17,17,17,17,17,17,17,17,16,17,17,17,16,17,17,17,17,17,17,17,17,17,17,17,16,17,17,17,17,17,17,17,17,17,17,17,17,17,16,17,17,17,17,17,17,17,17,17,17,17,16,17,17,17,17,17,17,16,17,16,17,17,17,17,17,17,17,16,17,17,17,17,17,16,16,17,17,17,17,17,17,17,17,17,17,17,17,17,17,17,16,17,17,17,17,17,17,17,17,17,17,17,17,16,17,17,17,17,17,17,17,17,17,17,17,17,16,17,17,17,17,17,17,17,17,17,17,17,17,17,16,17,17,17,17,17,17,17,17,17,17,17,17,17,17,17,17,17,17,17,17,17,16,17,17,17,17,17,17,17,17,17,16,17,17,17,17,16,17,17,17,17,17,16,17,17,17,17,17,17,17,17,17,17,17,17,17,17,17,17,17,17,17,17,17,17,17,17,17,17,17,17,17,17,17,17,17,17,17,17,16,17,17,17,17,16,17,17,17,17,17,17,17,17,17,17,17,16,17,17,17,17,17,17,17,17,17,16,17,17,17,17,16,17,17,17,17,17,17,17,17,17,17,17,17,17,17,17,17,17,17,17,17,17,17,17,17,17,17,17,17,16,17,17,17,17,17,17,17,17,17,16,17,17,17,17,17,16,17,17,17,17,17,17,17,17,17,17,17,17,16,17,17,17,17,17,17,17,17,17,17,17,17,17,17,17,17,17,17,17,17,17,17,17,17,17,17,16,17,17,17,17,17,17,17,17,17,16,17,17,17,17,16,17,17,17,17,17,17,17,17,17,17,17,17,17,16,17,17,16,17,17,17,17,17,17,17,17,17,16,17,17,17,17,17,17,17,17,17,17,17,17,17,17,17,17,17,17,17,17,17,17,17,17,17,17,17,17,17,17,17,16,17,17,17,17,17,17,17,16,17,17,17,17,17,17,17,17,17,17,17,17,16,16,17,17,17,17,17,17,17,17,17,17,17,17,16,17,17,17,17,17,17,17,17,17,17,17,16,17,17,17,17,17,17,17,17,17,17,17,17,17,17,17,17,16,17,17,17,17,17,17,17,17,17,17,17,17,16,17,17,17,17,17,17,17,17,17,17,17,17,17,17,16,17,16,17,17,17,17,17,17,17,17,17,17,17,17,16,17,16,17,17,17,17,17,17,17,17,17,17,17,16,17,17,17,17,17,17,17,17,17,17,17,17,16,17,17,17,17,17,17,17,17,17,17,17,17,17,17,17,17,17,17,17,16,17,17,17,17,17,17,17,17,17,17,17,17,17,17,17,17,16,17,17,17,17,16,17,17,17,17,17,17,17,17,17,17,17,17,17,17,16,17,17,17,17,17,17,16,17,17,17,17,16,17,16,17,17,17,17,17,17,17,17,17,17,17,17,16,17,17,17,17,17,17,17,17,17,17,17,17,17,17,17,17,17,17,17,17,17,17,17,17,17,16,17,17,17,17,17,17,17,17,17,17,17,16,17,17,17,17,17,17,17,17,17,17,17,17,17,17,16,17,16,17,17,17,17,17,17,17,17,17,17,17,17,17,17,17,17,17,17,17,17,17,17,17,17,17,17,17,17,17,17,17,17,17,17,17,17,17,17,17,17,17,17,17,17,16,17,17,17,17,17,17,17,17,17,16,17,17,17,17,17,17,16,17,16,17,17,17,16,17,17,17,17,17,17,17,17,17,17,17,17,17,16,17,17,17,17,17,17,17,17,17,17,17,17,16,17,17,17,17,17,17,17,17,17,17,17,17,17,16,17,17,17,17,17,17,17,17,17,17,17,17,17,16,17,17,17,17,17,17,17,17,17,17,17,17,17,17,17,17,17,16,17,17,17,17,17,17,17,17,17,17,17,17,16,16,17,17,17,17,17,17,17,17,17,17,17,17,17,17,17,17,17,17,17,17,17,17,17,17,17,17,16,17,16,17,17,17,17,17,17,17,17,16,17,16,17,17,17,17,17,17,17,16,17,17,17,17,16,17,17,17,17,17,17,17,17,17,17,17,17,17,16,17,17,17,17,17,17,17,16,17,17,17,17,17,17,16,17,17,17,17,17,17,17,16,17,17,17,17,16,17,17,17,17,17,17,17,17,17,17,17,17,17,17,17,17,17,17,17,17,17,17,17,17,17,17,17,17,17,17,17,17,17,17,17,17,16,17,17,17,17,17,17,17,17,17,17,17,17,17,17,17,17,17,17,17,16,17,17,17,17,17,17,17,17,17]","2594","956","466","false","20","20","black","1","false","1","1","1920","932","ArrowRight","staircase_motion","","","","","",""
"","","","","","html-keyboard-response","9","2359958","0.0-5.0-1.0-0.0-1.0-0.0-0.0-0.0-2.0","null","","null","<p style='font-size: 60px; color: green'>正确!</p>","","","","","","","","","","","","","","","","","","","","","","","","","","","","","","","","","","","","","","","","","","","","","","","","",""
"","","","","","html-keyboard-response","10","2361371","0.0-5.0-1.0-0.0-1.0-0.0-0.0-0.0-0.1","null","fixation","null","<p style='font-size: 48px; color: white'>+</p >","","","","","","","","","","","","","","","","","","","","","","","","","","","","","","","","","","","","","","","","","","","","","","","","",""
"","","","","","rdk","11","2366159","0.0-5.0-1.0-0.0-1.0-0.0-0.0-0.0-1.1","3886","motion_test","arrowleft","","false","[""ArrowLeft"",""ArrowRight""]","ArrowRight","-1","true","1","100","0","0.1","0","3","1","-1","2","300","300","[""white""]","[""hsl(0, 50%, 50%)"",""hsl(225, 50%, 50%)""]","0","0.5","0","circle","black","3","2","2","16.854077253218883","[5,16,17,17,17,17,17,17,17,17,17,17,17,17,17,17,17,17,17,17,17,17,17,16,17,17,17,17,17,17,17,17,17,17,17,17,17,17,16,17,17,17,16,17,17,17,17,17,17,17,17,17,17,17,17,17,17,17,16,17,17,17,17,17,17,17,17,17,17,17,17,17,17,17,16,17,17,17,17,17,16,17,17,17,17,17,17,17,17,17,17,17,17,16,17,17,17,17,17,17,17,17,17,17,16,17,17,16,17,17,17,17,17,17,16,17,17,17,17,17,17,17,17,17,16,17,17,17,17,17,17,17,17,17,16,17,17,17,17,17,17,17,17,17,17,17,17,17,16,17,17,17,17,17,17,16,17,17,17,17,17,17,17,17,17,17,17,17,17,17,17,17,17,17,17,17,17,17,17,17,17,17,17,17,17,17,17,17,16,17,17,17,17,17,17,17,17,17,17,17,17,17,17,16,17,17,17,17,16,17,17,17,17,16,17,16,17,17,16,17,17,17,17,16,17,17,17,17,17,17,17,17,17]","233","956","466","false","20","20","black","1","false","1","1","1920","932","ArrowRight","staircase_motion","","","","","",""
"","","","","","html-keyboard-response","12","2367570","0.0-5.0-1.0-0.0-1.0-0.0-0.0-0.0-2.1","null","","null","<p style='font-size: 60px; color: red'>错误!</p>","","","","","","","","","","","","","","","","","","","","","","","","","","","","","","","","","","","","","","","","","","","","","","","","",""
"","","","","","html-keyboard-response","13","2368994","0.0-5.0-1.0-0.0-1.0-0.0-0.0-0.0-0.2","null","fixation","null","<p style='font-size: 48px; color: white'>+</p >","","","","","","","","","","","","","","","","","","","","","","","","","","","","","","","","","","","","","","","","","","","","","","","","",""
"","","","","","rdk","14","2378415","0.0-5.0-1.0-0.0-1.0-0.0-0.0-0.0-1.2","8505","motion_test","arrowleft","","true","[""ArrowLeft"",""ArrowRight""]","ArrowLeft","-1","true","1","100","180","0.1","0","3","1","-1","2","300","300","[""white""]","[""hsl(0, 50%, 50%)"",""hsl(225, 50%, 50%)""]","0","0.5","0","circle","black","3","2","2","16.89628180039139","[2,16,17,17,17,17,17,17,17,16,17,17,17,17,17,17,17,17,17,17,17,17,17,17,17,16,17,17,17,16,17,17,17,17,17,17,17,17,17,16,17,17,17,17,17,17,16,17,17,17,17,17,17,17,17,17,17,17,17,17,17,17,17,17,17,17,17,16,16,17,17,17,17,17,17,17,17,17,17,17,17,17,17,16,17,17,17,17,17,17,17,17,17,17,17,17,17,17,17,17,17,17,17,17,17,17,17,17,17,16,17,17,17,17,16,17,17,17,17,17,17,17,17,17,16,17,17,17,17,17,17,17,17,17,17,17,17,17,17,17,17,17,17,17,17,17,17,17,17,17,17,17,17,17,17,16,17,17,17,17,17,17,17,17,17,17,17,17,17,17,17,17,17,17,17,17,17,17,17,17,17,17,17,17,17,16,17,17,17,17,17,17,17,17,17,17,17,17,17,17,16,17,17,17,17,17,17,17,17,17,16,17,17,17,17,17,17,17,17,17,17,17,17,17,17,17,16,17,17,17,17,17,17,17,17,17,17,17,17,17,17,17,17,17,17,17,17,17,17,17,17,17,17,17,17,17,17,17,17,17,17,17,17,17,17,17,17,17,17,16,17,16,17,16,17,17,17,17,17,17,17,17,17,17,16,17,17,17,17,17,17,17,17,17,17,17,17,17,17,17,17,17,17,17,17,17,17,17,17,17,17,16,17,17,17,17,17,17,16,17,17,17,17,17,17,16,17,17,17,17,17,17,17,16,17,17,17,17,17,16,17,17,17,17,17,17,17,17,17,17,17,17,16,17,17,17,17,17,17,17,17,17,17,17,17,17,16,17,17,17,17,17,17,17,17,17,17,17,17,17,17,17,16,17,17,17,17,17,17,17,17,17,16,17,17,17,17,17,17,17,17,17,17,17,17,17,17,17,17,17,17,16,17,17,17,17,17,17,17,17,17,17,17,17,17,16,17,17,17,17,17,17,17,17,17,17,17,16,17,17,17,17,17,17,17,17,17,17,17,17,17,17,17,17,17,17,16,17,17,17,17,17,17,17,17,17,17,17,17,16,17,17,17,17,17,17,17,17,17,17,17,16,17,17,17,17,17,17,17,17,17,16,17,17,17,17,17,16,17,17,17,17,17,17,17,17,17,17,17,17,17]","511","956","466","false","20","20","black","1","false","1","1","1920","932","ArrowLeft","staircase_motion","","","","","",""
"","","","","","html-keyboard-response","15","2379840","0.0-5.0-1.0-0.0-1.0-0.0-0.0-0.0-2.2","null","","null","<p style='font-size: 60px; color: green'>正确!</p>","","","","","","","","","","","","","","","","","","","","","","","","","","","","","","","","","","","","","","","","","","","","","","","","",""
"","","","","","html-keyboard-response","16","2381265","0.0-5.0-1.0-0.0-1.0-0.0-0.0-0.0-0.3","null","fixation","null","<p style='font-size: 48px; color: white'>+</p >","","","","","","","","","","","","","","","","","","","","","","","","","","","","","","","","","","","","","","","","","","","","","","","","",""
"","","","","","rdk","17","2386126","0.0-5.0-1.0-0.0-1.0-0.0-0.0-0.0-1.3","3945","motion_test","arrowleft","","true","[""ArrowLeft"",""ArrowRight""]","ArrowLeft","-1","true","1","100","180","0.1","0","3","1","-1","2","300","300","[""white""]","[""hsl(0, 50%, 50%)"",""hsl(225, 50%, 50%)""]","0","0.5","0","circle","black","3","2","2","16.91949152542373","[14,17,17,17,17,17,16,17,17,17,17,17,17,17,17,17,16,17,17,17,17,17,17,17,17,17,17,17,17,17,17,17,17,17,17,17,17,17,17,17,17,17,17,17,17,17,17,17,16,17,17,17,17,17,17,17,17,17,17,17,17,16,17,17,17,16,17,17,17,17,17,17,17,17,17,17,16,17,17,17,17,17,17,17,17,17,17,17,17,16,17,17,17,17,17,17,17,17,17,17,17,17,17,17,17,17,17,17,17,16,17,17,17,17,17,16,17,17,17,17,17,17,17,17,17,17,17,17,17,17,17,17,16,17,17,17,17,17,17,17,17,17,17,17,17,17,16,17,17,17,17,17,17,17,17,17,17,17,17,16,17,17,17,17,17,17,17,17,16,17,17,17,17,16,17,17,17,17,17,17,17,17,17,17,17,17,16,17,17,17,17,17,17,17,17,17,17,17,17,17,16,17,17,17,17,17,17,17,17,17,17,17,17,17,17,17,17,17,17,17,17,17,17,17,17,17,17,17,17,17,17,17,17,17,17,17]","236","956","466","false","20","20","black","1","false","1","1","1920","932","ArrowLeft","staircase_motion","","","","","",""
"","","","","","html-keyboard-response","18","2387545","0.0-5.0-1.0-0.0-1.0-0.0-0.0-0.0-2.3","null","","null","<p style='font-size: 60px; color: green'>正确!</p>","","","","","","","","","","","","","","","","","","","","","","","","","","","","","","","","","","","","","","","","","","","","","","","","",""
"","","","","","html-keyboard-response","19","2388969","0.0-5.0-1.0-0.0-1.0-0.0-0.0-0.0-0.4","null","fixation","null","<p style='font-size: 48px; color: white'>+</p >","","","","","","","","","","","","","","","","","","","","","","","","","","","","","","","","","","","","","","","","","","","","","","","","",""
"","","","","","rdk","20","2394717","0.0-5.0-1.0-0.0-1.0-0.0-0.0-0.0-1.4","4847","motion_test","arrowright","","true","[""ArrowLeft"",""ArrowRight""]","ArrowRight","-1","true","1","100","0","0.1","0","3","1","-1","2","300","300","[""white""]","[""hsl(0, 50%, 50%)"",""hsl(225, 50%, 50%)""]","0","0.5","0","circle","black","3","2","2","16.876288659793815","[8,17,17,17,17,17,17,17,17,17,17,17,17,17,17,17,17,16,17,17,16,17,17,17,17,17,17,17,17,17,17,17,17,17,16,17,17,17,17,17,17,17,17,17,17,17,17,17,17,17,17,17,17,17,17,17,17,16,17,17,17,16,17,17,17,17,17,17,17,17,17,17,17,17,17,17,16,17,17,17,17,17,17,17,17,17,17,17,17,16,17,17,17,17,17,17,17,17,17,17,17,17,17,17,16,17,17,17,17,17,17,17,17,17,17,17,17,17,17,16,17,17,17,17,17,16,16,17,17,17,17,17,17,17,17,17,17,17,17,16,17,17,17,17,16,17,17,17,16,17,17,17,17,17,17,17,17,17,17,17,17,17,17,16,17,17,17,17,17,16,17,17,17,17,17,17,16,17,17,17,17,17,17,17,16,17,17,17,17,17,17,17,17,17,17,17,17,17,17,17,17,17,16,17,17,17,17,17,17,17,17,17,17,17,17,17,17,17,17,17,17,16,17,17,17,17,17,17,17,16,17,17,17,17,16,17,17,17,17,17,17,17,17,17,17,17,17,17,17,17,17,17,17,17,17,17,16,17,17,17,17,17,17,17,16,17,17,17,17,17,17,17,16,17,17,17,17,17,17,17,17,17,17,17,17,17,17,16,16,17,17]","291","956","466","false","20","20","black","1","false","1","1","1920","932","ArrowRight","staircase_motion","","","","","",""
"","","","","","html-keyboard-response","21","2396134","0.0-5.0-1.0-0.0-1.0-0.0-0.0-0.0-2.4","null","","null","<p style='font-size: 60px; color: green'>正确!</p>","","","","","","","","","","","","","","","","","","","","","","","","","","","","","","","","","","","","","","","","","","","","","","","","",""
"","","","","","html-keyboard-response","22","2397560","0.0-5.0-1.0-0.0-1.0-0.0-0.0-0.0-0.5","null","fixation","null","<p style='font-size: 48px; color: white'>+</p >","","","","","","","","","","","","","","","","","","","","","","","","","","","","","","","","","","","","","","","","","","","","","","","","",""
"","","","","","rdk","23","2401021","0.0-5.0-1.0-0.0-1.0-0.0-0.0-0.0-1.5","2547","motion_test","arrowleft","","true","[""ArrowLeft"",""ArrowRight""]","ArrowLeft","-1","true","1","100","180","0.1","0","3","1","-1","2","300","300","[""white""]","[""hsl(0, 50%, 50%)"",""hsl(225, 50%, 50%)""]","0","0.5","0","circle","black","3","2","2","16.81045751633987","[4,17,17,17,17,17,17,17,16,17,17,17,17,17,17,17,17,17,17,17,16,17,17,16,17,17,17,17,17,17,17,17,17,17,17,17,17,17,16,17,17,17,17,17,17,17,17,17,17,17,16,17,16,16,17,17,17,17,17,17,17,17,17,17,17,16,17,16,17,17,17,17,17,17,17,16,17,17,17,17,16,17,17,17,17,17,17,17,17,17,17,17,17,16,17,17,17,17,17,17,17,17,17,17,17,17,17,17,17,16,17,17,17,17,17,17,17,17,17,17,17,17,17,17,17,17,17,17,17,17,17,17,17,17,17,17,16,17,17,17,17,17,17,17,17,17,17,17,17,16,17,17,16]","153","956","466","false","20","20","black","1","false","1","1","1920","932","ArrowLeft","staircase_motion","","","","","",""
"","","","","","html-keyboard-response","24","2402433","0.0-5.0-1.0-0.0-1.0-0.0-0.0-0.0-2.5","null","","null","<p style='font-size: 60px; color: green'>正确!</p>","","","","","","","","","","","","","","","","","","","","","","","","","","","","","","","","","","","","","","","","","","","","","","","","",""
"","","","","","html-keyboard-response","25","2403848","0.0-5.0-1.0-0.0-1.0-0.0-0.0-0.0-0.6","null","fixation","null","<p style='font-size: 48px; color: white'>+</p >","","","","","","","","","","","","","","","","","","","","","","","","","","","","","","","","","","","","","","","","","","","","","","","","",""
"","","","","","rdk","26","2408615","0.0-5.0-1.0-0.0-1.0-0.0-0.0-0.0-1.6","3865","motion_test","arrowright","","true","[""ArrowLeft"",""ArrowRight""]","ArrowRight","-1","true","1","100","0","0.1","0","3","1","-1","2","300","300","[""white""]","[""hsl(0, 50%, 50%)"",""hsl(225, 50%, 50%)""]","0","0.5","0","circle","black","3","2","2","16.896551724137932","[12,16,17,17,17,17,17,17,17,17,17,17,17,16,17,17,16,17,17,17,17,17,17,17,17,17,17,17,17,17,17,17,17,17,17,17,17,17,17,16,17,17,17,17,16,17,17,17,17,17,17,17,17,17,17,17,17,17,17,16,17,17,17,17,17,17,17,17,17,17,17,17,17,17,16,17,17,17,17,17,17,17,17,17,17,16,17,17,16,17,17,17,17,17,17,17,17,17,17,17,16,16,17,17,17,17,17,17,17,17,17,17,17,17,17,17,17,17,17,16,17,17,17,17,17,17,17,17,17,17,17,16,17,17,17,17,17,17,17,17,17,17,17,17,17,17,16,17,17,17,17,17,17,17,17,17,17,17,17,17,17,16,17,17,17,17,17,17,17,17,17,17,17,17,17,16,17,17,17,17,17,17,17,17,17,17,17,17,17,17,17,17,17,17,17,17,17,17,17,17,17,17,17,17,16,17,16,17,17,17,17,17,17,17,17,17,17,17,17,17,17,17,17,17,17,17,17,17,17,16,17,17]","232","956","466","false","20","20","black","1","false","1","1","1920","932","ArrowRight","staircase_motion","","","","","",""
"","","","","","html-keyboard-response","27","2410038","0.0-5.0-1.0-0.0-1.0-0.0-0.0-0.0-2.6","null","","null","<p style='font-size: 60px; color: green'>正确!</p>","","","","","","","","","","","","","","","","","","","","","","","","","","","","","","","","","","","","","","","","","","","","","","","","",""
"","","","","","html-keyboard-response","28","2411465","0.0-5.0-1.0-0.0-1.0-0.0-0.0-0.0-0.7","null","fixation","null","<p style='font-size: 48px; color: white'>+</p >","","","","","","","","","","","","","","","","","","","","","","","","","","","","","","","","","","","","","","","","","","","","","","","","",""
"","","","","","rdk","29","2414903","0.0-5.0-1.0-0.0-1.0-0.0-0.0-0.0-1.7","2521","motion_test","arrowleft","","true","[""ArrowLeft"",""ArrowRight""]","ArrowLeft","-1","true","1","100","180","0.1","0","3","1","-1","2","300","300","[""white""]","[""hsl(0, 50%, 50%)"",""hsl(225, 50%, 50%)""]","0","0.5","0","circle","black","3","2","2","16.90066225165563","[14,17,17,17,17,17,17,17,16,17,17,17,17,17,17,17,17,17,16,17,17,17,17,17,17,17,17,17,17,17,17,17,17,17,17,17,16,17,17,17,17,17,17,17,17,17,17,17,17,17,17,16,17,17,17,17,17,17,17,17,17,17,17,17,17,17,17,17,17,17,16,17,17,17,17,17,17,16,17,17,17,17,17,17,17,16,17,17,17,17,17,17,17,17,17,17,17,17,17,16,17,17,17,17,17,17,17,17,17,17,17,16,17,17,17,17,17,17,17,17,17,17,17,17,16,17,17,17,17,17,17,17,17,17,17,17,17,17,16,17,17,17,17,16,17,17,17,17,17,17,17]","151","956","466","false","20","20","black","1","false","1","1","1920","932","ArrowLeft","staircase_motion","","","","","",""
"","","","","","html-keyboard-response","30","2416324","0.0-5.0-1.0-0.0-1.0-0.0-0.0-0.0-2.7","null","","null","<p style='font-size: 60px; color: green'>正确!</p>","","","","","","","","","","","","","","","","","","","","","","","","","","","","","","","","","","","","","","","","","","","","","","","","",""
"","","","","","html-keyboard-response","31","2417736","0.0-5.0-1.0-0.0-1.0-0.0-0.0-0.0-0.8","null","fixation","null","<p style='font-size: 48px; color: white'>+</p >","","","","","","","","","","","","","","","","","","","","","","","","","","","","","","","","","","","","","","","","","","","","","","","","",""
"","","","","","rdk","32","2420206","0.0-5.0-1.0-0.0-1.0-0.0-0.0-0.0-1.8","1554","motion_test","arrowright","","true","[""ArrowLeft"",""ArrowRight""]","ArrowRight","-1","true","1","100","0","0.1","0","3","1","-1","2","300","300","[""white""]","[""hsl(0, 50%, 50%)"",""hsl(225, 50%, 50%)""]","0","0.5","0","circle","black","3","2","2","16.827956989247312","[9,17,17,17,16,16,17,17,17,17,16,17,17,17,17,17,16,17,17,17,17,17,17,17,17,17,17,17,17,17,17,17,17,17,17,17,17,17,17,17,17,17,17,17,16,17,17,17,17,17,17,16,17,17,17,17,17,17,16,17,17,17,17,17,17,17,17,17,17,17,17,17,17,17,17,17,17,17,17,17,17,17,17,17,17,17,16,17,17,17,17,17,17]","93","956","466","false","20","20","black","1","false","1","1","1920","932","ArrowRight","staircase_motion","","","","","",""
"","","","","","html-keyboard-response","33","2421630","0.0-5.0-1.0-0.0-1.0-0.0-0.0-0.0-2.8","null","","null","<p style='font-size: 60px; color: green'>正确!</p>","","","","","","","","","","","","","","","","","","","","","","","","","","","","","","","","","","","","","","","","","","","","","","","","",""
"","","","","","html-keyboard-response","34","2423055","0.0-5.0-1.0-0.0-1.0-0.0-0.0-0.0-0.9","null","fixation","null","<p style='font-size: 48px; color: white'>+</p >","","","","","","","","","","","","","","","","","","","","","","","","","","","","","","","","","","","","","","","","","","","","","","","","",""
"","","","","","rdk","35","2424758","0.0-5.0-1.0-0.0-1.0-0.0-0.0-0.0-1.9","788","motion_test","arrowleft","","true","[""ArrowLeft"",""ArrowRight""]","ArrowLeft","-1","true","1","100","180","0.1","0","3","1","-1","2","300","300","[""white""]","[""hsl(0, 50%, 50%)"",""hsl(225, 50%, 50%)""]","0","0.5","0","circle","black","3","2","2","16.74468085106383","[8,16,17,17,17,17,17,17,17,17,17,17,17,17,17,17,17,17,17,17,17,16,17,17,17,17,17,17,17,17,17,17,17,17,17,17,16,17,17,17,17,17,17,17,17,17,17]","47","956","466","false","20","20","black","1","false","1","1","1920","932","ArrowLeft","staircase_motion","","","","","",""
"","","","","","html-keyboard-response","36","2426172","0.0-5.0-1.0-0.0-1.0-0.0-0.0-0.0-2.9","null","","null","<p style='font-size: 60px; color: green'>正确!</p>","","","","","","","","","","","","","","","","","","","","","","","","","","","","","","","","","","","","","","","","","","","","","","","","",""
"","","","","","html-keyboard-response","37","2427598","0.0-5.0-1.0-0.0-1.0-0.0-0.0-0.0-0.10","null","fixation","null","<p style='font-size: 48px; color: white'>+</p >","","","","","","","","","","","","","","","","","","","","","","","","","","","","","","","","","","","","","","","","","","","","","","","","",""
"","","","","","rdk","38","2429247","0.0-5.0-1.0-0.0-1.0-0.0-0.0-0.0-1.10","734","motion_test","arrowleft","","true","[""ArrowLeft"",""ArrowRight""]","ArrowLeft","-1","true","1","100","180","0.1","0","3","1","-1","2","300","300","[""white""]","[""hsl(0, 50%, 50%)"",""hsl(225, 50%, 50%)""]","0","0.5","0","circle","black","3","2","2","16.88372093023256","[15,17,17,17,17,17,17,17,17,17,17,17,16,17,17,17,16,17,17,17,17,17,17,17,17,17,17,17,17,17,17,17,17,17,17,17,17,17,16,17,17,17,17]","43","956","466","false","20","20","black","1","false","1","1","1920","932","ArrowLeft","staircase_motion","","","","","",""
"","","","","","html-keyboard-response","39","2430668","0.0-5.0-1.0-0.0-1.0-0.0-0.0-0.0-2.10","null","","null","<p style='font-size: 60px; color: green'>正确!</p>","","","","","","","","","","","","","","","","","","","","","","","","","","","","","","","","","","","","","","","","","","","","","","","","",""
"","","","","","html-keyboard-response","40","2432093","0.0-5.0-1.0-0.0-1.0-0.0-0.0-0.0-0.11","null","fixation","null","<p style='font-size: 48px; color: white'>+</p >","","","","","","","","","","","","","","","","","","","","","","","","","","","","","","","","","","","","","","","","","","","","","","","","",""
"","","","","","rdk","41","2435678","0.0-5.0-1.0-0.0-1.0-0.0-0.0-0.0-1.11","2670","motion_test","arrowright","","true","[""ArrowLeft"",""ArrowRight""]","ArrowRight","-1","true","1","100","0","0.1","0","3","1","-1","2","300","300","[""white""]","[""hsl(0, 50%, 50%)"",""hsl(225, 50%, 50%)""]","0","0.5","0","circle","black","3","2","2","16.84375","[4,17,17,17,17,17,17,17,17,17,17,17,17,17,16,17,17,17,17,17,17,17,17,16,17,17,17,17,17,17,17,17,17,17,17,17,17,16,17,17,17,17,17,17,17,17,17,17,17,17,17,16,17,17,17,17,17,17,17,17,17,17,17,17,17,17,16,16,17,17,17,17,17,16,17,17,17,17,17,17,16,17,17,17,17,17,17,17,17,17,17,17,17,16,17,17,16,17,17,17,17,17,17,17,17,17,17,17,16,17,17,16,17,17,17,17,17,17,17,17,17,17,17,17,17,17,17,17,17,17,17,17,17,17,17,17,17,17,17,17,17,17,17,17,17,17,17,17,17,17,17,17,17,17,17,17,17,17,17,17]","160","956","466","false","20","20","black","1","false","1","1","1920","932","ArrowRight","staircase_motion","","","","","",""
"","","","","","html-keyboard-response","42","2437090","0.0-5.0-1.0-0.0-1.0-0.0-0.0-0.0-2.11","null","","null","<p style='font-size: 60px; color: green'>正确!</p>","","","","","","","","","","","","","","","","","","","","","","","","","","","","","","","","","","","","","","","","","","","","","","","","",""
"","","","","","html-keyboard-response","43","2440018","0.0-5.0-1.0-0.0-1.0-0.0-0.0-1.0","null","","null","<p style='font-size: 35px; color: white'>您的正确率为： 92% 。平均反应时为：6592毫秒。</p>","","","","","","","","","","","","","","","","","","","","","","","","","","","","","","","","","","","","","","","","","","","","","","","","",""
"","","","","","html-keyboard-response","44","2441431","0.0-5.0-1.0-0.0-1.0-1.0-0.0-0.0-0.0","null","fixation","null","<p style='font-size: 48px; color: white'>+</p >","","","","","","","","","","","","","","","","","","","","","","","","","","","","","","","","","","","","","","","","","","","","","","","","",""
"","","","","","rdk","45","2443718","0.0-5.0-1.0-0.0-1.0-1.0-0.0-0.0-1.0","1374","motion_test","arrowleft","","true","[""ArrowLeft"",""ArrowRight""]","ArrowLeft","-1","true","1","100","180","0.07","0","3","1","-1","2","300","300","[""white""]","[""hsl(0, 50%, 50%)"",""hsl(225, 50%, 50%)""]","0","0.5","0","circle","black","3","2","2","16.734939759036145","[2,16,17,17,17,17,17,16,17,17,17,17,17,17,17,17,17,17,17,17,17,17,17,17,17,17,17,17,17,17,17,17,17,17,17,17,17,17,17,16,17,17,17,17,17,17,16,17,17,17,17,17,17,17,16,16,17,17,17,17,17,17,17,17,17,17,17,16,17,17,17,17,17,17,17,17,17,17,17,17,17,17,17]","83","956","466","false","20","20","black","1","false","1","1","1920","932","ArrowLeft","staircase_motion","","","","","",""
"","","","","","html-keyboard-response","46","2445137","0.0-5.0-1.0-0.0-1.0-1.0-0.0-0.0-2.0","null","","null","<p style='font-size: 60px; color: green'>正确!</p>","","","","","","","","","","","","","","","","","","","","","","","","","","","","","","","","","","","","","","","","","","","","","","","","",""
"","","","","","html-keyboard-response","47","2446563","0.0-5.0-1.0-0.0-1.0-1.0-0.0-0.0-0.1","null","fixation","null","<p style='font-size: 48px; color: white'>+</p >","","","","","","","","","","","","","","","","","","","","","","","","","","","","","","","","","","","","","","","","","","","","","","","","",""
"","","","","","rdk","48","2448070","0.0-5.0-1.0-0.0-1.0-1.0-0.0-0.0-1.1","593","motion_test","arrowright","","true","[""ArrowLeft"",""ArrowRight""]","ArrowRight","-1","true","1","100","0","0.07","0","3","1","-1","2","300","300","[""white""]","[""hsl(0, 50%, 50%)"",""hsl(225, 50%, 50%)""]","0","0.5","0","circle","black","3","2","2","16.47222222222222","[1,16,17,17,17,17,17,17,17,17,17,16,17,17,17,17,17,17,17,17,17,17,17,17,17,17,17,16,17,17,17,17,17,17,17,17]","36","956","466","false","20","20","black","1","false","1","1","1920","932","ArrowRight","staircase_motion","","","","","",""
"","","","","","html-keyboard-response","49","2449495","0.0-5.0-1.0-0.0-1.0-1.0-0.0-0.0-2.1","null","","null","<p style='font-size: 60px; color: green'>正确!</p>","","","","","","","","","","","","","","","","","","","","","","","","","","","","","","","","","","","","","","","","","","","","","","","","",""
"","","","","","html-keyboard-response","50","2450921","0.0-5.0-1.0-0.0-1.0-1.0-0.0-0.0-0.2","null","fixation","null","<p style='font-size: 48px; color: white'>+</p >","","","","","","","","","","","","","","","","","","","","","","","","","","","","","","","","","","","","","","","","","","","","","","","","",""
"","","","","","rdk","51","2452502","0.0-5.0-1.0-0.0-1.0-1.0-0.0-0.0-1.2","667","motion_test","arrowright","","true","[""ArrowLeft"",""ArrowRight""]","ArrowRight","-1","true","1","100","0","0.07","0","3","1","-1","2","300","300","[""white""]","[""hsl(0, 50%, 50%)"",""hsl(225, 50%, 50%)""]","0","0.5","0","circle","black","3","2","2","16.65","[8,17,17,17,17,17,17,17,17,16,17,16,17,17,17,17,17,17,16,17,17,17,17,17,17,17,17,17,17,17,17,17,16,17,17,17,17,17,16,17]","40","956","466","false","20","20","black","1","false","1","1","1920","932","ArrowRight","staircase_motion","","","","","",""
"","","","","","html-keyboard-response","52","2453916","0.0-5.0-1.0-0.0-1.0-1.0-0.0-0.0-2.2","null","","null","<p style='font-size: 60px; color: green'>正确!</p>","","","","","","","","","","","","","","","","","","","","","","","","","","","","","","","","","","","","","","","","","","","","","","","","",""
"","","","","","html-keyboard-response","53","2455339","0.0-5.0-1.0-0.0-1.0-1.0-0.0-0.0-0.3","null","fixation","null","<p style='font-size: 48px; color: white'>+</p >","","","","","","","","","","","","","","","","","","","","","","","","","","","","","","","","","","","","","","","","","","","","","","","","",""
"","","","","","rdk","54","2456934","0.0-5.0-1.0-0.0-1.0-1.0-0.0-0.0-1.3","680","motion_test","arrowleft","","true","[""ArrowLeft"",""ArrowRight""]","ArrowLeft","-1","true","1","100","180","0.07","0","3","1","-1","2","300","300","[""white""]","[""hsl(0, 50%, 50%)"",""hsl(225, 50%, 50%)""]","0","0.5","0","circle","black","3","2","2","16.73170731707317","[8,17,17,17,17,17,17,17,16,17,17,17,17,17,17,17,17,16,17,17,17,17,17,17,17,17,17,17,17,17,17,17,17,17,17,17,17,17,17,17,17]","41","956","466","false","20","20","black","1","false","1","1","1920","932","ArrowLeft","staircase_motion","","","","","",""
"","","","","","html-keyboard-response","55","2458345","0.0-5.0-1.0-0.0-1.0-1.0-0.0-0.0-2.3","null","","null","<p style='font-size: 60px; color: green'>正确!</p>","","","","","","","","","","","","","","","","","","","","","","","","","","","","","","","","","","","","","","","","","","","","","","","","",""
"","","","","","html-keyboard-response","56","2459773","0.0-5.0-1.0-0.0-1.0-1.0-0.0-0.0-0.4","null","fixation","null","<p style='font-size: 48px; color: white'>+</p >","","","","","","","","","","","","","","","","","","","","","","","","","","","","","","","","","","","","","","","","","","","","","","","","",""
"","","","","","rdk","57","2464318","0.0-5.0-1.0-0.0-1.0-1.0-0.0-0.0-1.4","3643","motion_test","arrowleft","","false","[""ArrowLeft"",""ArrowRight""]","ArrowRight","-1","true","1","100","0","0.07","0","3","1","-1","2","300","300","[""white""]","[""hsl(0, 50%, 50%)"",""hsl(225, 50%, 50%)""]","0","0.5","0","circle","black","3","2","2","16.85388127853881","[9,11,17,17,17,17,16,17,17,16,17,17,17,17,17,17,17,16,17,17,17,17,17,17,17,17,16,17,17,17,17,17,17,17,17,17,16,17,17,17,17,17,17,17,17,17,17,17,17,17,17,17,17,17,17,17,17,17,17,16,17,17,17,16,17,17,17,17,17,17,17,17,17,17,17,17,17,17,17,17,17,17,17,17,17,17,17,17,16,17,17,17,17,17,17,17,17,17,17,16,17,17,17,17,17,17,17,17,17,17,17,17,17,17,17,17,17,17,17,16,17,17,17,17,16,17,17,17,17,17,17,17,17,17,17,17,17,17,16,17,17,17,17,17,17,17,17,17,17,17,17,17,17,17,17,16,17,17,17,17,17,17,17,17,17,17,17,17,17,16,17,17,17,17,17,17,17,17,17,17,17,17,17,17,16,17,17,17,17,17,17,17,17,17,17,17,16,17,17,16,17,17,17,17,16,17,17,17,17,17,17,17,17,17,17,17,17,17,17]","219","956","466","false","20","20","black","1","false","1","1","1920","932","ArrowRight","staircase_motion","","","","","",""
"","","","","","html-keyboard-response","58","2465731","0.0-5.0-1.0-0.0-1.0-1.0-0.0-0.0-2.4","null","","null","<p style='font-size: 60px; color: red'>错误!</p>","","","","","","","","","","","","","","","","","","","","","","","","","","","","","","","","","","","","","","","","","","","","","","","","",""
"","","","","","html-keyboard-response","59","2467155","0.0-5.0-1.0-0.0-1.0-1.0-0.0-0.0-0.5","null","fixation","null","<p style='font-size: 48px; color: white'>+</p >","","","","","","","","","","","","","","","","","","","","","","","","","","","","","","","","","","","","","","","","","","","","","","","","",""
"","","","","","rdk","60","2469166","0.0-5.0-1.0-0.0-1.0-1.0-0.0-0.0-1.5","1095","motion_test","arrowright","","false","[""ArrowLeft"",""ArrowRight""]","ArrowLeft","-1","true","1","100","180","0.07","0","3","1","-1","2","300","300","[""white""]","[""hsl(0, 50%, 50%)"",""hsl(225, 50%, 50%)""]","0","0.5","0","circle","black","3","2","2","16.78787878787879","[8,17,17,17,17,17,17,17,17,17,17,17,17,17,17,17,17,17,17,17,17,17,17,17,17,16,17,17,17,17,16,17,17,17,17,16,17,16,17,17,17,17,17,17,17,17,17,17,17,17,17,16,17,17,17,17,17,17,17,17,17,17,17,17,17,17]","66","956","466","false","20","20","black","1","false","1","1","1920","932","ArrowLeft","staircase_motion","","","","","",""
"","","","","","html-keyboard-response","61","2470587","0.0-5.0-1.0-0.0-1.0-1.0-0.0-0.0-2.5","null","","null","<p style='font-size: 60px; color: red'>错误!</p>","","","","","","","","","","","","","","","","","","","","","","","","","","","","","","","","","","","","","","","","","","","","","","","","",""
"","","","","","html-keyboard-response","62","2472013","0.0-5.0-1.0-0.0-1.0-1.0-0.0-0.0-0.6","null","fixation","null","<p style='font-size: 48px; color: white'>+</p >","","","","","","","","","","","","","","","","","","","","","","","","","","","","","","","","","","","","","","","","","","","","","","","","",""
"","","","","","rdk","63","2473670","0.0-5.0-1.0-0.0-1.0-1.0-0.0-0.0-1.6","743","motion_test","arrowleft","","true","[""ArrowLeft"",""ArrowRight""]","ArrowLeft","-1","true","1","100","180","0.07","0","3","1","-1","2","300","300","[""white""]","[""hsl(0, 50%, 50%)"",""hsl(225, 50%, 50%)""]","0","0.5","0","circle","black","3","2","2","16.6","[2,16,17,17,17,17,17,17,17,17,17,17,17,17,17,17,17,17,17,16,17,17,17,17,17,17,17,17,17,17,17,17,17,17,17,17,16,17,17,17,17,17,17,17,17]","45","956","466","false","20","20","black","1","false","1","1","1920","932","ArrowLeft","staircase_motion","","","","","",""
"","","","","","html-keyboard-response","64","2475081","0.0-5.0-1.0-0.0-1.0-1.0-0.0-0.0-2.6","null","","null","<p style='font-size: 60px; color: green'>正确!</p>","","","","","","","","","","","","","","","","","","","","","","","","","","","","","","","","","","","","","","","","","","","","","","","","",""
"","","","","","html-keyboard-response","65","2476505","0.0-5.0-1.0-0.0-1.0-1.0-0.0-0.0-0.7","null","fixation","null","<p style='font-size: 48px; color: white'>+</p >","","","","","","","","","","","","","","","","","","","","","","","","","","","","","","","","","","","","","","","","","","","","","","","","",""
"","","","","","rdk","66","2481270","0.0-5.0-1.0-0.0-1.0-1.0-0.0-0.0-1.7","3850","motion_test","arrowright","","true","[""ArrowLeft"",""ArrowRight""]","ArrowRight","-1","true","1","100","0","0.07","0","3","1","-1","2","300","300","[""white""]","[""hsl(0, 50%, 50%)"",""hsl(225, 50%, 50%)""]","0","0.5","0","circle","black","3","2","2","16.88744588744589","[9,17,17,17,17,16,17,17,17,17,17,17,17,17,17,17,17,17,17,16,17,17,17,17,17,17,17,17,17,17,17,17,17,17,17,17,17,17,16,17,17,17,17,17,17,17,17,17,17,17,17,17,17,17,17,17,17,17,17,17,17,17,17,17,17,17,17,17,17,17,17,17,17,17,17,17,17,17,17,17,17,17,17,17,17,17,17,17,17,17,17,17,17,17,17,17,17,17,17,17,16,17,17,16,17,16,17,17,17,17,17,17,17,17,17,17,17,16,17,17,17,17,17,17,17,17,17,17,17,16,17,17,17,17,17,17,17,17,17,17,16,17,17,17,17,17,17,17,17,17,17,17,17,17,17,16,17,17,17,17,17,17,17,17,17,17,17,17,17,17,16,17,16,17,17,17,17,17,17,17,16,17,17,17,17,17,17,17,17,17,16,17,17,17,17,16,17,17,17,17,17,17,17,17,17,17,17,17,17,17,17,17,17,17,17,17,17,17,17,17,16,17,17,17,17,16,17,17,18,15,17]","231","956","466","false","20","20","black","1","false","1","1","1920","932","ArrowRight","staircase_motion","","","","","",""
"","","","","","html-keyboard-response","67","2482685","0.0-5.0-1.0-0.0-1.0-1.0-0.0-0.0-2.7","null","","null","<p style='font-size: 60px; color: green'>正确!</p>","","","","","","","","","","","","","","","","","","","","","","","","","","","","","","","","","","","","","","","","","","","","","","","","",""
"","","","","","html-keyboard-response","68","2484112","0.0-5.0-1.0-0.0-1.0-1.0-0.0-0.0-0.8","null","fixation","null","<p style='font-size: 48px; color: white'>+</p >","","","","","","","","","","","","","","","","","","","","","","","","","","","","","","","","","","","","","","","","","","","","","","","","",""
"","","","","","rdk","69","2488310","0.0-5.0-1.0-0.0-1.0-1.0-0.0-0.0-1.8","3284","motion_test","arrowleft","","true","[""ArrowLeft"",""ArrowRight""]","ArrowLeft","-1","true","1","100","180","0.07","0","3","1","-1","2","300","300","[""white""]","[""hsl(0, 50%, 50%)"",""hsl(225, 50%, 50%)""]","0","0.5","0","circle","black","3","2","2","16.82233502538071","[8,10,17,17,17,17,17,17,17,17,16,17,17,17,17,17,17,17,17,17,16,17,17,17,17,17,17,17,17,17,17,17,16,17,17,17,17,16,17,17,17,17,17,17,17,17,17,17,17,17,17,17,16,17,17,17,17,17,17,16,17,17,17,17,16,17,17,17,17,17,17,17,17,17,17,17,17,17,17,17,17,16,17,17,17,17,17,17,17,17,17,17,17,17,17,17,17,17,17,17,17,17,17,17,17,17,16,17,17,17,16,16,17,17,17,17,17,17,17,17,17,17,17,17,17,17,16,16,17,17,17,17,17,17,17,17,17,17,17,17,17,17,17,17,17,17,17,17,17,17,17,17,16,16,17,17,17,17,17,17,16,17,17,17,17,17,17,17,17,17,17,17,17,17,17,17,17,17,17,17,16,17,16,17,17,17,17,17,17,17,17,17,17,17,17,16,17]","197","956","466","false","20","20","black","1","false","1","1","1920","932","ArrowLeft","staircase_motion","","","","","",""
"","","","","","html-keyboard-response","70","2489736","0.0-5.0-1.0-0.0-1.0-1.0-0.0-0.0-2.8","null","","null","<p style='font-size: 60px; color: green'>正确!</p>","","","","","","","","","","","","","","","","","","","","","","","","","","","","","","","","","","","","","","","","","","","","","","","","",""
"","","","","","html-keyboard-response","71","2491159","0.0-5.0-1.0-0.0-1.0-1.0-0.0-0.0-0.9","null","fixation","null","<p style='font-size: 48px; color: white'>+</p >","","","","","","","","","","","","","","","","","","","","","","","","","","","","","","","","","","","","","","","","","","","","","","","","",""
"","","","","","rdk","72","2493534","0.0-5.0-1.0-0.0-1.0-1.0-0.0-0.0-1.9","1460","motion_test","arrowright","","true","[""ArrowLeft"",""ArrowRight""]","ArrowRight","-1","true","1","100","0","0.07","0","3","1","-1","2","300","300","[""white""]","[""hsl(0, 50%, 50%)"",""hsl(225, 50%, 50%)""]","0","0.5","0","circle","black","3","2","2","16.75","[5,16,17,17,17,17,16,17,17,17,17,17,17,17,17,17,17,17,17,17,17,17,16,17,17,17,17,17,17,17,17,17,17,17,17,17,16,17,17,17,17,17,17,17,17,17,17,17,16,17,17,16,17,17,17,16,17,17,17,17,17,17,17,17,16,17,17,17,17,17,16,17,17,17,17,17,17,16,17,17,17,17,17,17,17,17,17,17]","88","956","466","false","20","20","black","1","false","1","1","1920","932","ArrowRight","staircase_motion","","","","","",""
"","","","","","html-keyboard-response","73","2494955","0.0-5.0-1.0-0.0-1.0-1.0-0.0-0.0-2.9","null","","null","<p style='font-size: 60px; color: green'>正确!</p>","","","","","","","","","","","","","","","","","","","","","","","","","","","","","","","","","","","","","","","","","","","","","","","","",""
"","","","","","html-keyboard-response","74","2496380","0.0-5.0-1.0-0.0-1.0-1.0-0.0-0.0-0.10","null","fixation","null","<p style='font-size: 48px; color: white'>+</p >","","","","","","","","","","","","","","","","","","","","","","","","","","","","","","","","","","","","","","","","","","","","","","","","",""
"","","","","","rdk","75","2501222","0.0-5.0-1.0-0.0-1.0-1.0-0.0-0.0-1.10","3941","motion_test","arrowright","","true","[""ArrowLeft"",""ArrowRight""]","ArrowRight","-1","true","1","100","0","0.07","0","3","1","-1","2","300","300","[""white""]","[""hsl(0, 50%, 50%)"",""hsl(225, 50%, 50%)""]","0","0.5","0","circle","black","3","2","2","16.93220338983051","[13,17,17,17,17,17,17,17,17,17,17,16,17,17,17,17,17,17,17,17,17,17,17,17,17,17,17,17,17,16,17,17,17,17,17,17,17,17,17,17,16,17,17,17,17,17,17,17,17,17,17,17,17,17,17,17,17,17,17,17,17,17,17,17,17,17,17,17,17,17,17,17,17,17,17,17,17,17,17,17,17,17,17,17,16,17,17,17,17,17,17,17,17,17,16,17,17,17,17,17,17,17,17,17,17,17,17,17,17,17,17,17,16,16,17,17,17,17,17,17,17,17,17,17,17,17,17,17,17,17,17,17,17,17,17,17,17,17,17,17,17,17,17,17,17,17,17,17,17,17,17,17,17,17,17,17,17,17,17,17,17,17,17,17,17,17,17,17,17,17,17,17,17,17,17,17,17,17,17,17,17,17,16,17,17,17,17,17,17,17,16,17,17,17,17,17,17,16,17,17,17,17,17,17,17,17,17,17,17,17,17,17,16,17,17,17,17,17,17,17,16,17,17,17,17,17,17,17,17,17,17,17,17,17,17,17]","236","956","466","false","20","20","black","1","false","1","1","1920","932","ArrowRight","staircase_motion","","","","","",""
"","","","","","html-keyboard-response","76","2502641","0.0-5.0-1.0-0.0-1.0-1.0-0.0-0.0-2.10","null","","null","<p style='font-size: 60px; color: green'>正确!</p>","","","","","","","","","","","","","","","","","","","","","","","","","","","","","","","","","","","","","","","","","","","","","","","","",""
"","","","","","html-keyboard-response","77","2504065","0.0-5.0-1.0-0.0-1.0-1.0-0.0-0.0-0.11","null","fixation","null","<p style='font-size: 48px; color: white'>+</p >","","","","","","","","","","","","","","","","","","","","","","","","","","","","","","","","","","","","","","","","","","","","","","","","",""
"","","","","","rdk","78","2506214","0.0-5.0-1.0-0.0-1.0-1.0-0.0-0.0-1.11","1237","motion_test","arrowleft","","true","[""ArrowLeft"",""ArrowRight""]","ArrowLeft","-1","true","1","100","180","0.07","0","3","1","-1","2","300","300","[""white""]","[""hsl(0, 50%, 50%)"",""hsl(225, 50%, 50%)""]","0","0.5","0","circle","black","3","2","2","16.706666666666667","[2,16,16,17,17,17,16,17,17,17,17,17,16,17,17,16,17,17,17,17,17,17,17,17,17,17,17,17,17,17,17,17,17,17,17,17,17,16,17,16,17,17,17,17,17,17,17,17,17,17,17,17,17,17,17,17,17,17,17,17,17,17,17,17,17,17,17,17,17,17,17,17,17,17,17]","75","956","466","false","20","20","black","1","false","1","1","1920","932","ArrowLeft","staircase_motion","","","","","",""
"","","","","","html-keyboard-response","79","2507631","0.0-5.0-1.0-0.0-1.0-1.0-0.0-0.0-2.11","null","","null","<p style='font-size: 60px; color: green'>正确!</p>","","","","","","","","","","","","","","","","","","","","","","","","","","","","","","","","","","","","","","","","","","","","","","","","",""
"","","","","","html-keyboard-response","80","2510552","0.0-5.0-1.0-0.0-1.0-1.0-0.0-1.0","null","","null","<p style='font-size: 35px; color: white'>您的正确率为： 83% 。平均反应时为：1881毫秒。</p>","","","","","","","","","","","","","","","","","","","","","","","","","","","","","","","","","","","","","","","","","","","","","","","","",""
"","","","","","html-keyboard-response","81","2511964","0.0-5.0-1.0-0.0-1.0-2.0-0.0-0.0-0.0","null","fixation","null","<p style='font-size: 48px; color: white'>+</p >","","","","","","","","","","","","","","","","","","","","","","","","","","","","","","","","","","","","","","","","","","","","","","","","",""
"","","","","","rdk","82","2515838","0.0-5.0-1.0-0.0-1.0-2.0-0.0-0.0-1.0","2959","motion_test","arrowright","","true","[""ArrowLeft"",""ArrowRight""]","ArrowRight","-1","true","1","100","0","0.07","0","3","1","-1","2","300","300","[""white""]","[""hsl(0, 50%, 50%)"",""hsl(225, 50%, 50%)""]","0","0.5","0","circle","black","3","2","2","16.943502824858758","[15,17,17,17,17,17,17,17,17,17,17,17,17,17,17,17,17,17,17,17,17,16,17,17,17,17,17,16,17,17,17,17,17,17,17,17,17,17,17,17,17,17,16,17,17,17,17,17,17,17,17,17,17,17,17,17,17,17,17,17,17,17,17,17,17,17,17,17,17,17,17,17,17,17,17,17,17,17,17,17,17,17,17,17,17,17,17,17,17,17,17,17,16,17,17,17,17,17,17,17,17,17,17,17,16,17,17,17,17,17,17,17,17,17,17,17,17,17,17,17,17,17,17,17,17,17,17,17,17,17,17,17,16,17,17,17,17,17,17,16,17,17,17,17,17,17,17,17,17,17,17,17,17,17,17,17,17,17,17,17,17,17,17,17,17,16,17,17,17,17,17,17,17,17,17,17,17]","177","956","466","false","20","20","black","1","false","1","1","1920","932","ArrowRight","staircase_motion","","","","","",""
"","","","","","html-keyboard-response","83","2517263","0.0-5.0-1.0-0.0-1.0-2.0-0.0-0.0-2.0","null","","null","<p style='font-size: 60px; color: green'>正确!</p>","","","","","","","","","","","","","","","","","","","","","","","","","","","","","","","","","","","","","","","","","","","","","","","","",""
"","","","","","html-keyboard-response","84","2518684","0.0-5.0-1.0-0.0-1.0-2.0-0.0-0.0-0.1","null","fixation","null","<p style='font-size: 48px; color: white'>+</p >","","","","","","","","","","","","","","","","","","","","","","","","","","","","","","","","","","","","","","","","","","","","","","","","",""
"","","","","","rdk","85","2520374","0.0-5.0-1.0-0.0-1.0-2.0-0.0-0.0-1.1","775","motion_test","arrowright","","true","[""ArrowLeft"",""ArrowRight""]","ArrowRight","-1","true","1","100","0","0.07","0","3","1","-1","2","300","300","[""white""]","[""hsl(0, 50%, 50%)"",""hsl(225, 50%, 50%)""]","0","0.5","0","circle","black","3","2","2","16.891304347826086","[13,17,17,17,17,17,17,17,17,17,17,17,17,17,16,17,17,17,17,17,17,17,17,17,17,17,17,17,17,17,17,17,17,17,17,17,17,17,17,17,17,17,17,17,17,17]","46","956","466","false","20","20","black","1","false","1","1","1920","932","ArrowRight","staircase_motion","","","","","",""
"","","","","","html-keyboard-response","86","2521797","0.0-5.0-1.0-0.0-1.0-2.0-0.0-0.0-2.1","null","","null","<p style='font-size: 60px; color: green'>正确!</p>","","","","","","","","","","","","","","","","","","","","","","","","","","","","","","","","","","","","","","","","","","","","","","","","",""
"","","","","","html-keyboard-response","87","2523222","0.0-5.0-1.0-0.0-1.0-2.0-0.0-0.0-0.2","null","fixation","null","<p style='font-size: 48px; color: white'>+</p >","","","","","","","","","","","","","","","","","","","","","","","","","","","","","","","","","","","","","","","","","","","","","","","","",""
"","","","","","rdk","88","2524830","0.0-5.0-1.0-0.0-1.0-2.0-0.0-0.0-1.2","693","motion_test","arrowleft","","true","[""ArrowLeft"",""ArrowRight""]","ArrowLeft","-1","true","1","100","180","0.07","0","3","1","-1","2","300","300","[""white""]","[""hsl(0, 50%, 50%)"",""hsl(225, 50%, 50%)""]","0","0.5","0","circle","black","3","2","2","16.738095238095237","[7,17,17,17,17,17,17,17,17,17,17,17,17,17,17,17,17,17,17,17,17,17,17,17,17,17,17,17,17,17,17,17,16,17,17,17,17,17,17,17,17,17]","42","956","466","false","20","20","black","1","false","1","1","1920","932","ArrowLeft","staircase_motion","","","","","",""
"","","","","","html-keyboard-response","89","2526242","0.0-5.0-1.0-0.0-1.0-2.0-0.0-0.0-2.2","null","","null","<p style='font-size: 60px; color: green'>正确!</p>","","","","","","","","","","","","","","","","","","","","","","","","","","","","","","","","","","","","","","","","","","","","","","","","",""
"","","","","","html-keyboard-response","90","2527668","0.0-5.0-1.0-0.0-1.0-2.0-0.0-0.0-0.3","null","fixation","null","<p style='font-size: 48px; color: white'>+</p >","","","","","","","","","","","","","","","","","","","","","","","","","","","","","","","","","","","","","","","","","","","","","","","","",""
"","","","","","rdk","91","2529326","0.0-5.0-1.0-0.0-1.0-2.0-0.0-0.0-1.3","744","motion_test","arrowleft","","true","[""ArrowLeft"",""ArrowRight""]","ArrowLeft","-1","true","1","100","180","0.07","0","3","1","-1","2","300","300","[""white""]","[""hsl(0, 50%, 50%)"",""hsl(225, 50%, 50%)""]","0","0.5","0","circle","black","3","2","2","16.886363636363637","[14,17,17,17,17,17,17,17,17,17,17,17,17,17,16,17,17,17,17,17,17,17,17,17,17,17,17,17,17,17,17,17,17,17,17,17,17,17,17,17,16,17,17,17]","44","956","466","false","20","20","black","1","false","1","1","1920","932","ArrowLeft","staircase_motion","","","","","",""
"","","","","","html-keyboard-response","92","2530746","0.0-5.0-1.0-0.0-1.0-2.0-0.0-0.0-2.3","null","","null","<p style='font-size: 60px; color: green'>正确!</p>","","","","","","","","","","","","","","","","","","","","","","","","","","","","","","","","","","","","","","","","","","","","","","","","",""
"","","","","","html-keyboard-response","93","2532171","0.0-5.0-1.0-0.0-1.0-2.0-0.0-0.0-0.4","null","fixation","null","<p style='font-size: 48px; color: white'>+</p >","","","","","","","","","","","","","","","","","","","","","","","","","","","","","","","","","","","","","","","","","","","","","","","","",""
"","","","","","rdk","94","2534286","0.0-5.0-1.0-0.0-1.0-2.0-0.0-0.0-1.4","1199","motion_test","arrowright","","false","[""ArrowLeft"",""ArrowRight""]","ArrowLeft","-1","true","1","100","180","0.07","0","3","1","-1","2","300","300","[""white""]","[""hsl(0, 50%, 50%)"",""hsl(225, 50%, 50%)""]","0","0.5","0","circle","black","3","2","2","16.791666666666668","[7,17,17,17,17,17,17,17,17,17,17,17,17,17,17,17,17,17,17,16,17,17,17,16,17,17,17,17,17,17,17,17,17,17,16,17,17,16,17,17,17,17,17,17,17,17,16,17,17,17,17,17,17,17,17,17,17,17,17,17,17,17,17,17,17,17,17,17,17,17,17,17]","72","956","466","false","20","20","black","1","false","1","1","1920","932","ArrowLeft","staircase_motion","","","","","",""
"","","","","","html-keyboard-response","95","2535703","0.0-5.0-1.0-0.0-1.0-2.0-0.0-0.0-2.4","null","","null","<p style='font-size: 60px; color: red'>错误!</p>","","","","","","","","","","","","","","","","","","","","","","","","","","","","","","","","","","","","","","","","","","","","","","","","",""
"","","","","","html-keyboard-response","96","2537128","0.0-5.0-1.0-0.0-1.0-2.0-0.0-0.0-0.5","null","fixation","null","<p style='font-size: 48px; color: white'>+</p >","","","","","","","","","","","","","","","","","","","","","","","","","","","","","","","","","","","","","","","","","","","","","","","","",""
"","","","","","rdk","97","2538686","0.0-5.0-1.0-0.0-1.0-2.0-0.0-0.0-1.5","643","motion_test","arrowleft","","false","[""ArrowLeft"",""ArrowRight""]","ArrowRight","-1","true","1","100","0","0.07","0","3","1","-1","2","300","300","[""white""]","[""hsl(0, 50%, 50%)"",""hsl(225, 50%, 50%)""]","0","0.5","0","circle","black","3","2","2","16.53846153846154","[2,16,17,17,17,17,17,17,17,17,16,17,17,17,17,17,17,17,17,17,17,17,17,17,16,17,17,17,17,17,17,17,17,17,17,17,17,17,17]","39","956","466","false","20","20","black","1","false","1","1","1920","932","ArrowRight","staircase_motion","","","","","",""
"","","","","","html-keyboard-response","98","2540105","0.0-5.0-1.0-0.0-1.0-2.0-0.0-0.0-2.5","null","","null","<p style='font-size: 60px; color: red'>错误!</p>","","","","","","","","","","","","","","","","","","","","","","","","","","","","","","","","","","","","","","","","","","","","","","","","",""
"","","","","","html-keyboard-response","99","2541530","0.0-5.0-1.0-0.0-1.0-2.0-0.0-0.0-0.6","null","fixation","null","<p style='font-size: 48px; color: white'>+</p >","","","","","","","","","","","","","","","","","","","","","","","","","","","","","","","","","","","","","","","","","","","","","","","","",""
"","","","","","rdk","100","2543238","0.0-5.0-1.0-0.0-1.0-2.0-0.0-0.0-1.6","794","motion_test","arrowright","","false","[""ArrowLeft"",""ArrowRight""]","ArrowLeft","-1","true","1","100","180","0.07","0","3","1","-1","2","300","300","[""white""]","[""hsl(0, 50%, 50%)"",""hsl(225, 50%, 50%)""]","0","0.5","0","circle","black","3","2","2","16.5625","[1,16,17,17,17,17,17,17,17,17,17,17,16,17,17,17,17,17,17,17,17,17,17,17,17,17,16,17,17,17,17,17,16,17,17,17,17,17,17,16,17,17,17,17,17,17,17,17]","48","956","466","false","20","20","black","1","false","1","1","1920","932","ArrowLeft","staircase_motion","","","","","",""
"","","","","","html-keyboard-response","101","2544666","0.0-5.0-1.0-0.0-1.0-2.0-0.0-0.0-2.6","null","","null","<p style='font-size: 60px; color: red'>错误!</p>","","","","","","","","","","","","","","","","","","","","","","","","","","","","","","","","","","","","","","","","","","","","","","","","",""
"","","","","","html-keyboard-response","102","2546091","0.0-5.0-1.0-0.0-1.0-2.0-0.0-0.0-0.7","null","fixation","null","<p style='font-size: 48px; color: white'>+</p >","","","","","","","","","","","","","","","","","","","","","","","","","","","","","","","","","","","","","","","","","","","","","","","","",""
"","","","","","rdk","103","2547910","0.0-5.0-1.0-0.0-1.0-2.0-0.0-0.0-1.7","904","motion_test","arrowright","","true","[""ArrowLeft"",""ArrowRight""]","ArrowRight","-1","true","1","100","0","0.07","0","3","1","-1","2","300","300","[""white""]","[""hsl(0, 50%, 50%)"",""hsl(225, 50%, 50%)""]","0","0.5","0","circle","black","3","2","2","16.72222222222222","[5,16,17,17,17,17,17,17,17,17,17,17,17,17,17,17,17,17,17,17,17,17,17,17,17,17,17,17,17,17,17,17,16,17,17,17,17,17,16,17,17,17,17,17,17,17,17,17,17,17,17,17,17,17]","54","956","466","false","20","20","black","1","false","1","1","1920","932","ArrowRight","staircase_motion","","","","","",""
"","","","","","html-keyboard-response","104","2549337","0.0-5.0-1.0-0.0-1.0-2.0-0.0-0.0-2.7","null","","null","<p style='font-size: 60px; color: green'>正确!</p>","","","","","","","","","","","","","","","","","","","","","","","","","","","","","","","","","","","","","","","","","","","","","","","","",""
"","","","","","html-keyboard-response","105","2550764","0.0-5.0-1.0-0.0-1.0-2.0-0.0-0.0-0.8","null","fixation","null","<p style='font-size: 48px; color: white'>+</p >","","","","","","","","","","","","","","","","","","","","","","","","","","","","","","","","","","","","","","","","","","","","","","","","",""
"","","","","","rdk","106","2552950","0.0-5.0-1.0-0.0-1.0-2.0-0.0-0.0-1.8","1272","motion_test","arrowleft","","true","[""ArrowLeft"",""ArrowRight""]","ArrowLeft","-1","true","1","100","180","0.07","0","3","1","-1","2","300","300","[""white""]","[""hsl(0, 50%, 50%)"",""hsl(225, 50%, 50%)""]","0","0.5","0","circle","black","3","2","2","16.92105263157895","[17,15,17,17,17,17,17,17,17,17,17,17,17,17,17,17,17,17,17,17,17,17,17,17,16,17,17,17,17,17,17,17,17,17,17,17,17,17,16,17,17,17,17,17,17,17,17,17,17,17,17,17,17,17,17,17,17,16,17,17,17,17,17,17,17,17,17,16,17,17,17,17,17,17,17,17]","76","956","466","false","20","20","black","1","false","1","1","1920","932","ArrowLeft","staircase_motion","","","","","",""
"","","","","","html-keyboard-response","107","2554375","0.0-5.0-1.0-0.0-1.0-2.0-0.0-0.0-2.8","null","","null","<p style='font-size: 60px; color: green'>正确!</p>","","","","","","","","","","","","","","","","","","","","","","","","","","","","","","","","","","","","","","","","","","","","","","","","",""
"","","","","","html-keyboard-response","108","2555803","0.0-5.0-1.0-0.0-1.0-2.0-0.0-0.0-0.9","null","fixation","null","<p style='font-size: 48px; color: white'>+</p >","","","","","","","","","","","","","","","","","","","","","","","","","","","","","","","","","","","","","","","","","","","","","","","","",""
"","","","","","rdk","109","2557582","0.0-5.0-1.0-0.0-1.0-2.0-0.0-0.0-1.9","864","motion_test","arrowright","","true","[""ArrowLeft"",""ArrowRight""]","ArrowRight","-1","true","1","100","0","0.07","0","3","1","-1","2","300","300","[""white""]","[""hsl(0, 50%, 50%)"",""hsl(225, 50%, 50%)""]","0","0.5","0","circle","black","3","2","2","16.826923076923077","[11,17,17,17,17,17,17,17,17,17,17,17,17,17,17,17,17,16,17,17,17,17,17,17,17,17,17,17,17,17,17,16,17,17,17,17,17,17,17,17,17,17,17,17,17,16,17,17,17,17,17,17]","52","956","466","false","20","20","black","1","false","1","1","1920","932","ArrowRight","staircase_motion","","","","","",""
"","","","","","html-keyboard-response","110","2558998","0.0-5.0-1.0-0.0-1.0-2.0-0.0-0.0-2.9","null","","null","<p style='font-size: 60px; color: green'>正确!</p>","","","","","","","","","","","","","","","","","","","","","","","","","","","","","","","","","","","","","","","","","","","","","","","","",""
"","","","","","html-keyboard-response","111","2560423","0.0-5.0-1.0-0.0-1.0-2.0-0.0-0.0-0.10","null","fixation","null","<p style='font-size: 48px; color: white'>+</p >","","","","","","","","","","","","","","","","","","","","","","","","","","","","","","","","","","","","","","","","","","","","","","","","",""
"","","","","","rdk","112","2561958","0.0-5.0-1.0-0.0-1.0-2.0-0.0-0.0-1.10","634","motion_test","arrowright","","true","[""ArrowLeft"",""ArrowRight""]","ArrowRight","-1","true","1","100","0","0.07","0","3","1","-1","2","300","300","[""white""]","[""hsl(0, 50%, 50%)"",""hsl(225, 50%, 50%)""]","0","0.5","0","circle","black","3","2","2","16.55263157894737","[4,17,17,17,17,17,17,17,16,17,17,17,17,17,17,16,17,17,17,17,17,17,17,17,17,17,17,17,17,17,17,17,16,17,17,17,17,16]","38","956","466","false","20","20","black","1","false","1","1","1920","932","ArrowRight","staircase_motion","","","","","",""
"","","","","","html-keyboard-response","113","2563371","0.0-5.0-1.0-0.0-1.0-2.0-0.0-0.0-2.10","null","","null","<p style='font-size: 60px; color: green'>正确!</p>","","","","","","","","","","","","","","","","","","","","","","","","","","","","","","","","","","","","","","","","","","","","","","","","",""
"","","","","","html-keyboard-response","114","2564784","0.0-5.0-1.0-0.0-1.0-2.0-0.0-0.0-0.11","null","fixation","null","<p style='font-size: 48px; color: white'>+</p >","","","","","","","","","","","","","","","","","","","","","","","","","","","","","","","","","","","","","","","","","","","","","","","","",""
"","","","","","rdk","115","2567110","0.0-5.0-1.0-0.0-1.0-2.0-0.0-0.0-1.11","1410","motion_test","arrowright","","false","[""ArrowLeft"",""ArrowRight""]","ArrowLeft","-1","true","1","100","180","0.07","0","3","1","-1","2","300","300","[""white""]","[""hsl(0, 50%, 50%)"",""hsl(225, 50%, 50%)""]","0","0.5","0","circle","black","3","2","2","16.88095238095238","[11,17,16,17,17,17,17,17,17,17,17,16,17,17,17,17,17,17,17,17,17,17,17,17,17,17,17,17,17,17,17,17,17,17,17,17,17,17,17,17,17,17,17,17,17,17,17,17,17,17,17,17,17,16,17,17,17,17,16,17,17,17,17,17,17,17,17,17,17,17,17,17,17,17,17,17,17,17,17,17,17,17,17,17]","84","956","466","false","20","20","black","1","false","1","1","1920","932","ArrowLeft","staircase_motion","","","","","",""
"","","","","","html-keyboard-response","116","2568524","0.0-5.0-1.0-0.0-1.0-2.0-0.0-0.0-2.11","null","","null","<p style='font-size: 60px; color: red'>错误!</p>","","","","","","","","","","","","","","","","","","","","","","","","","","","","","","","","","","","","","","","","","","","","","","","","",""
"","","","","","html-keyboard-response","117","2571398","0.0-5.0-1.0-0.0-1.0-2.0-0.0-1.0","1958",""," ","<p style='font-size: 35px; color: white'>您的正确率为： 67% 。平均反应时为：1074毫秒。</p>","","","","","","","","","","","","","","","","","","","","","","","","","","","","","","","","","","","","","","","","","","","","","","","","",""
"","","","","","html-keyboard-response","118","2572813","0.0-5.0-1.0-0.0-1.0-3.0-0.0-0.0-0.0","null","fixation","null","<p style='font-size: 48px; color: white'>+</p >","","","","","","","","","","","","","","","","","","","","","","","","","","","","","","","","","","","","","","","","","","","","","","","","",""
"","","","","","rdk","119","2574502","0.0-5.0-1.0-0.0-1.0-3.0-0.0-0.0-1.0","776","motion_test","arrowright","","true","[""ArrowLeft"",""ArrowRight""]","ArrowRight","-1","true","1","100","0","0.1","0","3","1","-1","2","300","300","[""white""]","[""hsl(0, 50%, 50%)"",""hsl(225, 50%, 50%)""]","0","0.5","0","circle","black","3","2","2","16.680851063829788","[7,12,17,17,17,17,17,17,17,17,17,17,17,17,17,17,17,17,17,17,17,17,17,17,17,17,17,17,17,17,17,17,17,17,17,17,17,17,17,17,17,17,17,17,17,17,17]","47","956","466","false","20","20","black","1","false","1","1","1920","932","ArrowRight","staircase_motion","","","","","",""
"","","","","","html-keyboard-response","120","2575915","0.0-5.0-1.0-0.0-1.0-3.0-0.0-0.0-2.0","null","","null","<p style='font-size: 60px; color: green'>正确!</p>","","","","","","","","","","","","","","","","","","","","","","","","","","","","","","","","","","","","","","","","","","","","","","","","",""
"","","","","","html-keyboard-response","121","2577338","0.0-5.0-1.0-0.0-1.0-3.0-0.0-0.0-0.1","null","fixation","null","<p style='font-size: 48px; color: white'>+</p >","","","","","","","","","","","","","","","","","","","","","","","","","","","","","","","","","","","","","","","","","","","","","","","","",""
"","","","","","rdk","122","2579918","0.0-5.0-1.0-0.0-1.0-3.0-0.0-0.0-1.1","1666","motion_test","arrowleft","","true","[""ArrowLeft"",""ArrowRight""]","ArrowLeft","-1","true","1","100","180","0.1","0","3","1","-1","2","300","300","[""white""]","[""hsl(0, 50%, 50%)"",""hsl(225, 50%, 50%)""]","0","0.5","0","circle","black","3","2","2","16.87","[10,17,17,17,16,17,17,17,17,17,17,17,17,17,17,17,17,17,17,17,17,17,17,17,17,17,17,17,17,17,17,17,17,17,17,17,17,17,16,17,17,17,17,17,17,16,17,17,17,17,17,17,17,17,17,17,17,17,16,17,17,17,17,17,17,17,17,17,17,17,17,17,17,17,17,17,17,17,17,17,17,17,17,17,17,17,17,16,17,16,17,17,17,17,17,17,17,17,17,17]","100","956","466","false","20","20","black","1","false","1","1","1920","932","ArrowLeft","staircase_motion","","","","","",""
"","","","","","html-keyboard-response","123","2581337","0.0-5.0-1.0-0.0-1.0-3.0-0.0-0.0-2.1","null","","null","<p style='font-size: 60px; color: green'>正确!</p>","","","","","","","","","","","","","","","","","","","","","","","","","","","","","","","","","","","","","","","","","","","","","","","","",""
"","","","","","html-keyboard-response","124","2582762","0.0-5.0-1.0-0.0-1.0-3.0-0.0-0.0-0.2","null","fixation","null","<p style='font-size: 48px; color: white'>+</p >","","","","","","","","","","","","","","","","","","","","","","","","","","","","","","","","","","","","","","","","","","","","","","","","",""
"","","","","","rdk","125","2584430","0.0-5.0-1.0-0.0-1.0-3.0-0.0-0.0-1.2","753","motion_test","arrowright","","true","[""ArrowLeft"",""ArrowRight""]","ArrowRight","-1","true","1","100","0","0.1","0","3","1","-1","2","300","300","[""white""]","[""hsl(0, 50%, 50%)"",""hsl(225, 50%, 50%)""]","0","0.5","0","circle","black","3","2","2","16.58695652173913","[1,16,17,17,17,17,17,17,17,17,17,16,17,17,17,17,17,17,17,17,17,17,17,17,17,17,17,16,17,17,17,17,17,17,17,17,17,17,17,17,17,17,17,17,17,17]","46","956","466","false","20","20","black","1","false","1","1","1920","932","ArrowRight","staircase_motion","","","","","",""
"","","","","","html-keyboard-response","126","2585849","0.0-5.0-1.0-0.0-1.0-3.0-0.0-0.0-2.2","null","","null","<p style='font-size: 60px; color: green'>正确!</p>","","","","","","","","","","","","","","","","","","","","","","","","","","","","","","","","","","","","","","","","","","","","","","","","",""
"","","","","","html-keyboard-response","127","2587275","0.0-5.0-1.0-0.0-1.0-3.0-0.0-0.0-0.3","null","fixation","null","<p style='font-size: 48px; color: white'>+</p >","","","","","","","","","","","","","","","","","","","","","","","","","","","","","","","","","","","","","","","","","","","","","","","","",""
"","","","","","rdk","128","2591214","0.0-5.0-1.0-0.0-1.0-3.0-0.0-0.0-1.3","3038","motion_test","arrowleft","","true","[""ArrowLeft"",""ArrowRight""]","ArrowLeft","-1","true","1","100","180","0.1","0","3","1","-1","2","300","300","[""white""]","[""hsl(0, 50%, 50%)"",""hsl(225, 50%, 50%)""]","0","0.5","0","circle","black","3","2","2","16.85792349726776","[2,17,17,17,17,17,17,17,17,17,17,16,16,17,17,17,17,17,17,17,17,17,17,17,16,17,17,17,16,17,17,17,17,17,17,17,17,17,17,17,17,17,17,17,17,17,17,17,17,17,17,16,17,17,17,17,17,17,17,17,17,17,17,17,17,16,17,17,17,17,17,17,17,16,17,17,17,17,16,17,17,17,17,17,17,17,17,17,17,17,17,17,17,17,17,17,17,17,17,17,17,17,17,17,17,17,17,17,17,17,17,17,17,17,17,17,17,17,17,17,17,16,17,17,17,17,17,17,17,17,17,17,17,17,17,17,17,17,17,17,17,17,17,17,17,17,17,17,17,17,17,17,17,17,17,16,17,17,17,17,17,17,17,17,17,17,17,17,17,17,17,17,17,17,17,17,17,17,16,17,17,17,17]","183","956","466","false","20","20","black","1","false","1","1","1920","932","ArrowLeft","staircase_motion","","","","","",""
"","","","","","html-keyboard-response","129","2592631","0.0-5.0-1.0-0.0-1.0-3.0-0.0-0.0-2.3","null","","null","<p style='font-size: 60px; color: green'>正确!</p>","","","","","","","","","","","","","","","","","","","","","","","","","","","","","","","","","","","","","","","","","","","","","","","","",""
"","","","","","html-keyboard-response","130","2594057","0.0-5.0-1.0-0.0-1.0-3.0-0.0-0.0-0.4","null","fixation","null","<p style='font-size: 48px; color: white'>+</p >","","","","","","","","","","","","","","","","","","","","","","","","","","","","","","","","","","","","","","","","","","","","","","","","",""
"","","","","","rdk","131","2595862","0.0-5.0-1.0-0.0-1.0-3.0-0.0-0.0-1.4","905","motion_test","arrowright","","true","[""ArrowLeft"",""ArrowRight""]","ArrowRight","-1","true","1","100","0","0.1","0","3","1","-1","2","300","300","[""white""]","[""hsl(0, 50%, 50%)"",""hsl(225, 50%, 50%)""]","0","0.5","0","circle","black","3","2","2","16.64814814814815","[7,13,17,17,17,17,17,17,17,16,17,17,16,17,17,17,17,17,17,17,17,17,16,17,17,17,17,17,17,17,17,17,17,17,17,17,17,17,17,17,17,17,17,17,17,17,16,17,17,17,17,17,17,16]","54","956","466","false","20","20","black","1","false","1","1","1920","932","ArrowRight","staircase_motion","","","","","",""
"","","","","","html-keyboard-response","132","2597281","0.0-5.0-1.0-0.0-1.0-3.0-0.0-0.0-2.4","null","","null","<p style='font-size: 60px; color: green'>正确!</p>","","","","","","","","","","","","","","","","","","","","","","","","","","","","","","","","","","","","","","","","","","","","","","","","",""
"","","","","","html-keyboard-response","133","2598692","0.0-5.0-1.0-0.0-1.0-3.0-0.0-0.0-0.5","null","fixation","null","<p style='font-size: 48px; color: white'>+</p >","","","","","","","","","","","","","","","","","","","","","","","","","","","","","","","","","","","","","","","","","","","","","","","","",""
"","","","","","rdk","134","2600270","0.0-5.0-1.0-0.0-1.0-3.0-0.0-0.0-1.5","663","motion_test","arrowleft","","true","[""ArrowLeft"",""ArrowRight""]","ArrowLeft","-1","true","1","100","180","0.1","0","3","1","-1","2","300","300","[""white""]","[""hsl(0, 50%, 50%)"",""hsl(225, 50%, 50%)""]","0","0.5","0","circle","black","3","2","2","16.65","[5,17,17,17,17,17,17,17,17,17,17,17,17,17,17,17,17,17,17,17,17,17,16,17,17,17,17,17,17,17,17,17,17,16,17,17,17,17,17,17]","40","956","466","false","20","20","black","1","false","1","1","1920","932","ArrowLeft","staircase_motion","","","","","",""
"","","","","","html-keyboard-response","135","2601681","0.0-5.0-1.0-0.0-1.0-3.0-0.0-0.0-2.5","null","","null","<p style='font-size: 60px; color: green'>正确!</p>","","","","","","","","","","","","","","","","","","","","","","","","","","","","","","","","","","","","","","","","","","","","","","","","",""
"","","","","","html-keyboard-response","136","2603104","0.0-5.0-1.0-0.0-1.0-3.0-0.0-0.0-0.6","null","fixation","null","<p style='font-size: 48px; color: white'>+</p >","","","","","","","","","","","","","","","","","","","","","","","","","","","","","","","","","","","","","","","","","","","","","","","","",""
"","","","","","rdk","137","2604638","0.0-5.0-1.0-0.0-1.0-3.0-0.0-0.0-1.6","620","motion_test","arrowright","","true","[""ArrowLeft"",""ArrowRight""]","ArrowRight","-1","true","1","100","0","0.1","0","3","1","-1","2","300","300","[""white""]","[""hsl(0, 50%, 50%)"",""hsl(225, 50%, 50%)""]","0","0.5","0","circle","black","3","2","2","16.756756756756758","[10,17,17,17,17,17,17,17,17,17,17,17,17,17,17,17,17,16,17,17,17,17,17,17,17,17,17,17,17,16,17,17,17,17,17,17,17]","37","956","466","false","20","20","black","1","false","1","1","1920","932","ArrowRight","staircase_motion","","","","","",""
"","","","","","html-keyboard-response","138","2606062","0.0-5.0-1.0-0.0-1.0-3.0-0.0-0.0-2.6","null","","null","<p style='font-size: 60px; color: green'>正确!</p>","","","","","","","","","","","","","","","","","","","","","","","","","","","","","","","","","","","","","","","","","","","","","","","","",""
"","","","","","html-keyboard-response","139","2607486","0.0-5.0-1.0-0.0-1.0-3.0-0.0-0.0-0.7","null","fixation","null","<p style='font-size: 48px; color: white'>+</p >","","","","","","","","","","","","","","","","","","","","","","","","","","","","","","","","","","","","","","","","","","","","","","","","",""
"","","","","","rdk","140","2609782","0.0-5.0-1.0-0.0-1.0-3.0-0.0-0.0-1.7","1383","motion_test","arrowleft","","true","[""ArrowLeft"",""ArrowRight""]","ArrowLeft","-1","true","1","100","180","0.1","0","3","1","-1","2","300","300","[""white""]","[""hsl(0, 50%, 50%)"",""hsl(225, 50%, 50%)""]","0","0.5","0","circle","black","3","2","2","16.89156626506024","[13,17,17,17,17,17,17,17,17,17,17,17,17,17,17,17,17,17,17,17,17,17,17,16,17,17,17,17,16,17,17,17,17,17,17,17,17,17,17,17,17,17,17,16,17,17,17,17,17,17,17,17,17,17,17,16,17,17,17,17,17,17,17,17,17,17,17,17,17,17,17,17,17,17,17,17,17,17,17,17,16,17,17]","83","956","466","false","20","20","black","1","false","1","1","1920","932","ArrowLeft","staircase_motion","","","","","",""
"","","","","","html-keyboard-response","141","2611206","0.0-5.0-1.0-0.0-1.0-3.0-0.0-0.0-2.7","null","","null","<p style='font-size: 60px; color: green'>正确!</p>","","","","","","","","","","","","","","","","","","","","","","","","","","","","","","","","","","","","","","","","","","","","","","","","",""
"","","","","","html-keyboard-response","142","2612633","0.0-5.0-1.0-0.0-1.0-3.0-0.0-0.0-0.8","null","fixation","null","<p style='font-size: 48px; color: white'>+</p >","","","","","","","","","","","","","","","","","","","","","","","","","","","","","","","","","","","","","","","","","","","","","","","","",""
"","","","","","rdk","143","2614614","0.0-5.0-1.0-0.0-1.0-3.0-0.0-0.0-1.8","1066","motion_test","arrowleft","","true","[""ArrowLeft"",""ArrowRight""]","ArrowLeft","-1","true","1","100","180","0.1","0","3","1","-1","2","300","300","[""white""]","[""hsl(0, 50%, 50%)"",""hsl(225, 50%, 50%)""]","0","0.5","0","circle","black","3","2","2","16.890625","[12,17,17,17,17,17,17,17,17,17,16,17,17,17,17,17,17,17,17,17,17,17,17,17,17,17,17,17,17,17,17,17,16,17,17,17,17,17,17,17,17,17,17,17,17,17,17,17,17,17,17,17,17,17,17,17,17,17,17,17,17,17,17,17]","64","956","466","false","20","20","black","1","false","1","1","1920","932","ArrowLeft","staircase_motion","","","","","",""
"","","","","","html-keyboard-response","144","2616032","0.0-5.0-1.0-0.0-1.0-3.0-0.0-0.0-2.8","null","","null","<p style='font-size: 60px; color: green'>正确!</p>","","","","","","","","","","","","","","","","","","","","","","","","","","","","","","","","","","","","","","","","","","","","","","","","",""
"","","","","","html-keyboard-response","145","2617453","0.0-5.0-1.0-0.0-1.0-3.0-0.0-0.0-0.9","null","fixation","null","<p style='font-size: 48px; color: white'>+</p >","","","","","","","","","","","","","","","","","","","","","","","","","","","","","","","","","","","","","","","","","","","","","","","","",""
"","","","","","rdk","146","2618886","0.0-5.0-1.0-0.0-1.0-3.0-0.0-0.0-1.9","521","motion_test","arrowright","","true","[""ArrowLeft"",""ArrowRight""]","ArrowRight","-1","true","1","100","0","0.1","0","3","1","-1","2","300","300","[""white""]","[""hsl(0, 50%, 50%)"",""hsl(225, 50%, 50%)""]","0","0.5","0","circle","black","3","2","2","16.774193548387096","[13,16,17,16,17,17,17,17,17,17,17,17,17,17,17,17,17,17,17,17,17,17,17,17,17,17,17,16,17,17,17]","31","956","466","false","20","20","black","1","false","1","1","1920","932","ArrowRight","staircase_motion","","","","","",""
"","","","","","html-keyboard-response","147","2620299","0.0-5.0-1.0-0.0-1.0-3.0-0.0-0.0-2.9","null","","null","<p style='font-size: 60px; color: green'>正确!</p>","","","","","","","","","","","","","","","","","","","","","","","","","","","","","","","","","","","","","","","","","","","","","","","","",""
"","","","","","html-keyboard-response","148","2621721","0.0-5.0-1.0-0.0-1.0-3.0-0.0-0.0-0.10","null","fixation","null","<p style='font-size: 48px; color: white'>+</p >","","","","","","","","","","","","","","","","","","","","","","","","","","","","","","","","","","","","","","","","","","","","","","","","",""
"","","","","","rdk","149","2623990","0.0-5.0-1.0-0.0-1.0-3.0-0.0-0.0-1.10","1354","motion_test","arrowright","","false","[""ArrowLeft"",""ArrowRight""]","ArrowLeft","-1","true","1","100","180","0.1","0","3","1","-1","2","300","300","[""white""]","[""hsl(0, 50%, 50%)"",""hsl(225, 50%, 50%)""]","0","0.5","0","circle","black","3","2","2","16.82716049382716","[9,17,17,17,17,17,16,17,17,17,17,17,17,17,17,17,17,17,17,17,17,16,17,17,17,17,17,17,17,16,17,17,17,17,17,17,16,17,17,17,17,17,17,17,17,17,17,17,17,17,16,17,17,17,17,17,17,17,17,17,17,17,17,17,17,17,17,17,17,17,16,17,17,17,17,17,17,17,17,17,17]","81","956","466","false","20","20","black","1","false","1","1","1920","932","ArrowLeft","staircase_motion","","","","","",""
"","","","","","html-keyboard-response","150","2625412","0.0-5.0-1.0-0.0-1.0-3.0-0.0-0.0-2.10","null","","null","<p style='font-size: 60px; color: red'>错误!</p>","","","","","","","","","","","","","","","","","","","","","","","","","","","","","","","","","","","","","","","","","","","","","","","","",""
"","","","","","html-keyboard-response","151","2626839","0.0-5.0-1.0-0.0-1.0-3.0-0.0-0.0-0.11","null","fixation","null","<p style='font-size: 48px; color: white'>+</p >","","","","","","","","","","","","","","","","","","","","","","","","","","","","","","","","","","","","","","","","","","","","","","","","",""
"","","","","","rdk","152","2628502","0.0-5.0-1.0-0.0-1.0-3.0-0.0-0.0-1.11","747","motion_test","arrowright","","true","[""ArrowLeft"",""ArrowRight""]","ArrowRight","-1","true","1","100","0","0.1","0","3","1","-1","2","300","300","[""white""]","[""hsl(0, 50%, 50%)"",""hsl(225, 50%, 50%)""]","0","0.5","0","circle","black","3","2","2","16.666666666666668","[7,17,16,17,17,17,17,17,17,17,17,17,17,17,17,17,17,17,17,17,16,17,17,17,17,16,17,17,17,17,17,17,16,17,17,17,17,17,17,17,16,17,17,17,17]","45","956","466","false","20","20","black","1","false","1","1","1920","932","ArrowRight","staircase_motion","","","","","",""
"","","","","","html-keyboard-response","153","2629920","0.0-5.0-1.0-0.0-1.0-3.0-0.0-0.0-2.11","null","","null","<p style='font-size: 60px; color: green'>正确!</p>","","","","","","","","","","","","","","","","","","","","","","","","","","","","","","","","","","","","","","","","","","","","","","","","",""
"","","","","","html-keyboard-response","154","2632822","0.0-5.0-1.0-0.0-1.0-3.0-0.0-1.0","null","","null","<p style='font-size: 35px; color: white'>您的正确率为： 92% 。平均反应时为：1124毫秒。</p>","","","","","","","","","","","","","","","","","","","","","","","","","","","","","","","","","","","","","","","","","","","","","","","","",""
"","","","","","html-keyboard-response","155","2644942","0.0-5.0-1.0-0.0-2.0","11218","instruction_taskSeparate"," ","
    <div style=""text-align: left; color: white; padding: 10px""> 
      <p>现在是整体颜色判断</p>
      <p>您需要<span style=""font-weight: bold"">忽略点的运动方向</span>并判断整体颜色:</p >
        <ul>
            <li>整体为 <span style=""color: hsl(0, 50%, 50%)"">红色</span>，请按键盘 <span style=""color: hsl(0, 50%, 50%)"">""D"" 键</span></li>
            <li>整体为 <span style=""color: hsl(225, 50%, 50%)"">蓝色</span>，请按键盘 <span style=""color: hsl(225, 50%, 50%)"">""k"" 键</span> </li>
          </ul>
      <p>准备好后请按空格键开始</p>
    </div>","","","","","","","","","","","","","","","","","","","","","","","","","","","","","","","","","","","","","","","","","","","","","","","","",""
"","","","","","html-keyboard-response","156","2646366","0.0-5.0-1.0-0.0-3.0-0.0-0.0-0.0-0.0","null","fixation","null","<p style='font-size: 48px; color: white'>+</p >","","","","","","","","","","","","","","","","","","","","","","","","","","","","","","","","","","","","","","","","","","","","","","","","",""
"","","","","","rdk","157","2648190","0.0-5.0-1.0-0.0-3.0-0.0-0.0-0.0-1.0","909","color_test","k","","true","[""d"",""k""]","k","-1","true","1","100","0","0","0","3","1","-1","2","300","300","[""hsl(0, 50%, 50%)"",""hsl(225, 50%, 50%)""]","[""hsl(225, 50%, 50%)"",""hsl(0, 50%, 50%)""]","0","0.55","0","circle","black","3","2","2","16.88888888888889","[13,17,17,17,17,17,17,17,17,17,17,17,17,17,16,17,17,17,17,17,17,17,16,17,17,17,17,17,17,17,17,17,17,17,17,17,17,17,17,17,17,17,17,17,17,17,17,17,17,17,17,17,17,17]","54","956","466","false","20","20","black","1","false","1","1","1920","932","k","staircase_color","","","","","",""
"","","","","","html-keyboard-response","158","2649605","0.0-5.0-1.0-0.0-3.0-0.0-0.0-0.0-2.0","null","","null","<p style='font-size: 60px; color: green'>正确!</p>","","","","","","","","","","","","","","","","","","","","","","","","","","","","","","","","","","","","","","","","","","","","","","","","",""
"","","","","","html-keyboard-response","159","2651030","0.0-5.0-1.0-0.0-3.0-0.0-0.0-0.0-0.1","null","fixation","null","<p style='font-size: 48px; color: white'>+</p >","","","","","","","","","","","","","","","","","","","","","","","","","","","","","","","","","","","","","","","","","","","","","","","","",""
"","","","","","rdk","160","2652750","0.0-5.0-1.0-0.0-3.0-0.0-0.0-0.0-1.1","806","color_test","d","","true","[""d"",""k""]","d","-1","true","1","100","0","0","0","3","1","-1","2","300","300","[""hsl(0, 50%, 50%)"",""hsl(225, 50%, 50%)""]","[""hsl(0, 50%, 50%)"",""hsl(225, 50%, 50%)""]","0","0.55","0","circle","black","3","2","2","16.551020408163264","[1,16,17,17,17,17,17,16,17,17,17,16,17,17,17,17,17,17,17,17,17,17,17,16,17,16,17,17,17,17,17,17,17,17,17,17,17,17,16,17,17,17,17,17,17,17,17,17,17]","49","956","466","false","20","20","black","1","false","1","1","1920","932","d","staircase_color","","","","","",""
"","","","","","html-keyboard-response","161","2654173","0.0-5.0-1.0-0.0-3.0-0.0-0.0-0.0-2.1","null","","null","<p style='font-size: 60px; color: green'>正确!</p>","","","","","","","","","","","","","","","","","","","","","","","","","","","","","","","","","","","","","","","","","","","","","","","","",""
"","","","","","html-keyboard-response","162","2655585","0.0-5.0-1.0-0.0-3.0-0.0-0.0-0.0-0.2","null","fixation","null","<p style='font-size: 48px; color: white'>+</p >","","","","","","","","","","","","","","","","","","","","","","","","","","","","","","","","","","","","","","","","","","","","","","","","",""
"","","","","","rdk","163","2657277","0.0-5.0-1.0-0.0-3.0-0.0-0.0-0.0-1.2","776","color_test","d","","true","[""d"",""k""]","d","-1","true","1","100","0","0","0","3","1","-1","2","300","300","[""hsl(0, 50%, 50%)"",""hsl(225, 50%, 50%)""]","[""hsl(0, 50%, 50%)"",""hsl(225, 50%, 50%)""]","0","0.55","0","circle","black","3","2","2","16.82608695652174","[11,17,17,17,17,17,17,17,17,17,17,17,17,17,17,17,16,17,17,17,17,17,17,17,17,17,17,17,17,17,17,17,17,17,17,17,17,17,17,17,17,17,17,17,16,17]","46","956","466","false","20","20","black","1","false","1","1","1920","932","d","staircase_color","","","","","",""
"","","","","","html-keyboard-response","164","2658700","0.0-5.0-1.0-0.0-3.0-0.0-0.0-0.0-2.2","null","","null","<p style='font-size: 60px; color: green'>正确!</p>","","","","","","","","","","","","","","","","","","","","","","","","","","","","","","","","","","","","","","","","","","","","","","","","",""
"","","","","","html-keyboard-response","165","2660125","0.0-5.0-1.0-0.0-3.0-0.0-0.0-0.0-0.3","null","fixation","null","<p style='font-size: 48px; color: white'>+</p >","","","","","","","","","","","","","","","","","","","","","","","","","","","","","","","","","","","","","","","","","","","","","","","","",""
"","","","","","rdk","166","2662014","0.0-5.0-1.0-0.0-3.0-0.0-0.0-0.0-1.3","974","color_test","k","","true","[""d"",""k""]","k","-1","true","1","100","0","0","0","3","1","-1","2","300","300","[""hsl(0, 50%, 50%)"",""hsl(225, 50%, 50%)""]","[""hsl(225, 50%, 50%)"",""hsl(0, 50%, 50%)""]","0","0.55","0","circle","black","3","2","2","16.71186440677966","[5,16,17,17,17,17,17,17,16,17,16,17,17,17,17,17,17,17,17,17,17,16,17,17,17,17,17,17,17,17,17,17,17,17,17,16,17,17,17,17,17,17,17,17,17,17,17,17,17,17,17,17,17,17,17,17,17,17,17]","59","956","466","false","20","20","black","1","false","1","1","1920","932","k","staircase_color","","","","","",""
"","","","","","html-keyboard-response","167","2663433","0.0-5.0-1.0-0.0-3.0-0.0-0.0-0.0-2.3","null","","null","<p style='font-size: 60px; color: green'>正确!</p>","","","","","","","","","","","","","","","","","","","","","","","","","","","","","","","","","","","","","","","","","","","","","","","","",""
"","","","","","html-keyboard-response","168","2664856","0.0-5.0-1.0-0.0-3.0-0.0-0.0-0.0-0.4","null","fixation","null","<p style='font-size: 48px; color: white'>+</p >","","","","","","","","","","","","","","","","","","","","","","","","","","","","","","","","","","","","","","","","","","","","","","","","",""
"","","","","","rdk","169","2666478","0.0-5.0-1.0-0.0-3.0-0.0-0.0-0.0-1.4","708","color_test","d","","true","[""d"",""k""]","d","-1","true","1","100","0","0","0","3","1","-1","2","300","300","[""hsl(0, 50%, 50%)"",""hsl(225, 50%, 50%)""]","[""hsl(0, 50%, 50%)"",""hsl(225, 50%, 50%)""]","0","0.55","0","circle","black","3","2","2","16.69047619047619","[8,16,17,17,17,17,17,17,16,17,17,17,17,17,17,17,17,17,17,17,16,17,17,17,17,17,17,17,17,17,17,17,17,16,17,17,17,17,17,17,17,17]","42","956","466","false","20","20","black","1","false","1","1","1920","932","d","staircase_color","","","","","",""
"","","","","","html-keyboard-response","170","2667897","0.0-5.0-1.0-0.0-3.0-0.0-0.0-0.0-2.4","null","","null","<p style='font-size: 60px; color: green'>正确!</p>","","","","","","","","","","","","","","","","","","","","","","","","","","","","","","","","","","","","","","","","","","","","","","","","",""
"","","","","","html-keyboard-response","171","2669320","0.0-5.0-1.0-0.0-3.0-0.0-0.0-0.0-0.5","null","fixation","null","<p style='font-size: 48px; color: white'>+</p >","","","","","","","","","","","","","","","","","","","","","","","","","","","","","","","","","","","","","","","","","","","","","","","","",""
"","","","","","rdk","172","2671134","0.0-5.0-1.0-0.0-3.0-0.0-0.0-0.0-1.5","913","color_test","k","","true","[""d"",""k""]","k","-1","true","1","100","0","0","0","3","1","-1","2","300","300","[""hsl(0, 50%, 50%)"",""hsl(225, 50%, 50%)""]","[""hsl(225, 50%, 50%)"",""hsl(0, 50%, 50%)""]","0","0.55","0","circle","black","3","2","2","16.727272727272727","[7,17,17,16,17,17,17,17,17,17,17,17,17,17,17,17,17,17,17,17,16,17,17,17,17,17,17,17,16,17,17,17,17,17,17,17,17,17,17,17,16,17,17,17,17,17,17,17,17,17,16,17,17,17,17]","55","956","466","false","20","20","black","1","false","1","1","1920","932","k","staircase_color","","","","","",""
"","","","","","html-keyboard-response","173","2672551","0.0-5.0-1.0-0.0-3.0-0.0-0.0-0.0-2.5","null","","null","<p style='font-size: 60px; color: green'>正确!</p>","","","","","","","","","","","","","","","","","","","","","","","","","","","","","","","","","","","","","","","","","","","","","","","","",""
"","","","","","html-keyboard-response","174","2673965","0.0-5.0-1.0-0.0-3.0-0.0-0.0-0.0-0.6","null","fixation","null","<p style='font-size: 48px; color: white'>+</p >","","","","","","","","","","","","","","","","","","","","","","","","","","","","","","","","","","","","","","","","","","","","","","","","",""
"","","","","","rdk","175","2675726","0.0-5.0-1.0-0.0-3.0-0.0-0.0-0.0-1.6","845","color_test","k","","true","[""d"",""k""]","k","-1","true","1","100","0","0","0","3","1","-1","2","300","300","[""hsl(0, 50%, 50%)"",""hsl(225, 50%, 50%)""]","[""hsl(225, 50%, 50%)"",""hsl(0, 50%, 50%)""]","0","0.55","0","circle","black","3","2","2","16.88","[14,17,17,17,17,17,17,17,17,17,16,16,17,17,17,17,17,17,17,17,17,17,17,17,17,17,17,17,17,17,17,17,17,17,17,17,17,17,17,17,17,16,17,17,17,17,17,17,17,17]","50","956","466","false","20","20","black","1","false","1","1","1920","932","k","staircase_color","","","","","",""
"","","","","","html-keyboard-response","176","2677145","0.0-5.0-1.0-0.0-3.0-0.0-0.0-0.0-2.6","null","","null","<p style='font-size: 60px; color: green'>正确!</p>","","","","","","","","","","","","","","","","","","","","","","","","","","","","","","","","","","","","","","","","","","","","","","","","",""
"","","","","","html-keyboard-response","177","2678557","0.0-5.0-1.0-0.0-3.0-0.0-0.0-0.0-0.7","null","fixation","null","<p style='font-size: 48px; color: white'>+</p >","","","","","","","","","","","","","","","","","","","","","","","","","","","","","","","","","","","","","","","","","","","","","","","","",""
"","","","","","rdk","178","2680173","0.0-5.0-1.0-0.0-3.0-0.0-0.0-0.0-1.7","701","color_test","d","","true","[""d"",""k""]","d","-1","true","1","100","0","0","0","3","1","-1","2","300","300","[""hsl(0, 50%, 50%)"",""hsl(225, 50%, 50%)""]","[""hsl(0, 50%, 50%)"",""hsl(225, 50%, 50%)""]","0","0.55","0","circle","black","3","2","2","16.666666666666668","[6,16,17,17,17,17,17,17,17,17,17,16,17,17,17,17,17,17,17,17,16,17,17,17,17,17,17,17,17,17,17,17,17,17,17,17,17,17,17,17,17,17]","42","956","466","false","20","20","black","1","false","1","1","1920","932","d","staircase_color","","","","","",""
"","","","","","html-keyboard-response","179","2681598","0.0-5.0-1.0-0.0-3.0-0.0-0.0-0.0-2.7","null","","null","<p style='font-size: 60px; color: green'>正确!</p>","","","","","","","","","","","","","","","","","","","","","","","","","","","","","","","","","","","","","","","","","","","","","","","","",""
"","","","","","html-keyboard-response","180","2683025","0.0-5.0-1.0-0.0-3.0-0.0-0.0-0.0-0.8","null","fixation","null","<p style='font-size: 48px; color: white'>+</p >","","","","","","","","","","","","","","","","","","","","","","","","","","","","","","","","","","","","","","","","","","","","","","","","",""
"","","","","","rdk","181","2684782","0.0-5.0-1.0-0.0-3.0-0.0-0.0-0.0-1.8","842","color_test","d","","true","[""d"",""k""]","d","-1","true","1","100","0","0","0","3","1","-1","2","300","300","[""hsl(0, 50%, 50%)"",""hsl(225, 50%, 50%)""]","[""hsl(0, 50%, 50%)"",""hsl(225, 50%, 50%)""]","0","0.55","0","circle","black","3","2","2","16.686274509803923","[7,14,16,17,17,17,17,16,17,17,17,17,17,17,17,17,17,17,17,17,17,16,17,17,17,17,17,17,17,17,17,17,17,17,17,17,17,17,17,17,17,17,17,17,17,17,17,17,17,17,17]","51","956","466","false","20","20","black","1","false","1","1","1920","932","d","staircase_color","","","","","",""
"","","","","","html-keyboard-response","182","2686208","0.0-5.0-1.0-0.0-3.0-0.0-0.0-0.0-2.8","null","","null","<p style='font-size: 60px; color: green'>正确!</p>","","","","","","","","","","","","","","","","","","","","","","","","","","","","","","","","","","","","","","","","","","","","","","","","",""
"","","","","","html-keyboard-response","183","2687636","0.0-5.0-1.0-0.0-3.0-0.0-0.0-0.0-0.9","null","fixation","null","<p style='font-size: 48px; color: white'>+</p >","","","","","","","","","","","","","","","","","","","","","","","","","","","","","","","","","","","","","","","","","","","","","","","","",""
"","","","","","rdk","184","2689214","0.0-5.0-1.0-0.0-3.0-0.0-0.0-0.0-1.9","664","color_test","k","","true","[""d"",""k""]","k","-1","true","1","100","0","0","0","3","1","-1","2","300","300","[""hsl(0, 50%, 50%)"",""hsl(225, 50%, 50%)""]","[""hsl(225, 50%, 50%)"",""hsl(0, 50%, 50%)""]","0","0.55","0","circle","black","3","2","2","16.8","[11,17,17,17,17,17,16,17,17,17,17,17,17,17,17,17,17,17,17,17,17,17,17,17,17,17,17,17,17,17,17,17,17,16,17,17,17,17,17,17]","40","956","466","false","20","20","black","1","false","1","1","1920","932","k","staircase_color","","","","","",""
"","","","","","html-keyboard-response","185","2690632","0.0-5.0-1.0-0.0-3.0-0.0-0.0-0.0-2.9","null","","null","<p style='font-size: 60px; color: green'>正确!</p>","","","","","","","","","","","","","","","","","","","","","","","","","","","","","","","","","","","","","","","","","","","","","","","","",""
"","","","","","html-keyboard-response","186","2692043","0.0-5.0-1.0-0.0-3.0-0.0-0.0-0.0-0.10","null","fixation","null","<p style='font-size: 48px; color: white'>+</p >","","","","","","","","","","","","","","","","","","","","","","","","","","","","","","","","","","","","","","","","","","","","","","","","",""
"","","","","","rdk","187","2694102","0.0-5.0-1.0-0.0-3.0-0.0-0.0-0.0-1.10","1143","color_test","d","","true","[""d"",""k""]","d","-1","true","1","100","0","0","0","3","1","-1","2","300","300","[""hsl(0, 50%, 50%)"",""hsl(225, 50%, 50%)""]","[""hsl(0, 50%, 50%)"",""hsl(225, 50%, 50%)""]","0","0.55","0","circle","black","3","2","2","16.681159420289855","[3,16,17,17,17,17,17,17,17,16,17,17,17,17,17,17,17,16,16,17,17,17,18,16,17,17,17,16,17,17,17,17,17,17,17,17,17,16,17,17,17,17,17,17,17,17,17,17,17,17,17,17,16,17,17,17,17,17,17,17,17,17,16,17,17,17,17,17,17]","69","956","466","false","20","20","black","1","false","1","1","1920","932","d","staircase_color","","","","","",""
"","","","","","html-keyboard-response","188","2695520","0.0-5.0-1.0-0.0-3.0-0.0-0.0-0.0-2.10","null","","null","<p style='font-size: 60px; color: green'>正确!</p>","","","","","","","","","","","","","","","","","","","","","","","","","","","","","","","","","","","","","","","","","","","","","","","","",""
"","","","","","html-keyboard-response","189","2696946","0.0-5.0-1.0-0.0-3.0-0.0-0.0-0.0-0.11","null","fixation","null","<p style='font-size: 48px; color: white'>+</p >","","","","","","","","","","","","","","","","","","","","","","","","","","","","","","","","","","","","","","","","","","","","","","","","",""
"","","","","","rdk","190","2698446","0.0-5.0-1.0-0.0-3.0-0.0-0.0-0.0-1.11","585","color_test","k","","true","[""d"",""k""]","k","-1","true","1","100","0","0","0","3","1","-1","2","300","300","[""hsl(0, 50%, 50%)"",""hsl(225, 50%, 50%)""]","[""hsl(225, 50%, 50%)"",""hsl(0, 50%, 50%)""]","0","0.55","0","circle","black","3","2","2","16.485714285714284","[2,16,17,17,17,17,17,17,17,17,16,17,17,17,17,17,17,17,17,17,17,17,17,16,17,17,17,17,17,17,17,17,17,17,17]","35","956","466","false","20","20","black","1","false","1","1","1920","932","k","staircase_color","","","","","",""
"","","","","","html-keyboard-response","191","2699860","0.0-5.0-1.0-0.0-3.0-0.0-0.0-0.0-2.11","null","","null","<p style='font-size: 60px; color: green'>正确!</p>","","","","","","","","","","","","","","","","","","","","","","","","","","","","","","","","","","","","","","","","","","","","","","","","",""
"","","","","","html-keyboard-response","192","2702781","0.0-5.0-1.0-0.0-3.0-0.0-0.0-1.0","null","","null","<p style='font-size: 35px; color: white'>您的正确率为： 100% 。平均反应时为：822毫秒。</p>","","","","","","","","","","","","","","","","","","","","","","","","","","","","","","","","","","","","","","","","","","","","","","","","",""
"","","","","","html-keyboard-response","193","2704202","0.0-5.0-1.0-0.0-3.0-1.0-0.0-0.0-0.0","null","fixation","null","<p style='font-size: 48px; color: white'>+</p >","","","","","","","","","","","","","","","","","","","","","","","","","","","","","","","","","","","","","","","","","","","","","","","","",""
"","","","","","rdk","194","2705908","0.0-5.0-1.0-0.0-3.0-1.0-0.0-0.0-1.0","806","color_test","k","","true","[""d"",""k""]","k","-1","true","1","100","0","0","0","3","1","-1","2","300","300","[""hsl(0, 50%, 50%)"",""hsl(225, 50%, 50%)""]","[""hsl(225, 50%, 50%)"",""hsl(0, 50%, 50%)""]","0","0.53","0","circle","black","3","2","2","16.770833333333332","[8,17,17,17,17,17,17,17,17,17,17,17,17,17,17,17,17,17,17,17,17,17,17,17,17,17,17,17,17,17,17,17,16,17,17,17,17,17,17,17,17,17,17,17,17,17,16,17]","48","956","466","false","20","20","black","1","false","1","1","1920","932","k","staircase_color","","","","","",""
"","","","","","html-keyboard-response","195","2707335","0.0-5.0-1.0-0.0-3.0-1.0-0.0-0.0-2.0","null","","null","<p style='font-size: 60px; color: green'>正确!</p>","","","","","","","","","","","","","","","","","","","","","","","","","","","","","","","","","","","","","","","","","","","","","","","","",""
"","","","","","html-keyboard-response","196","2708748","0.0-5.0-1.0-0.0-3.0-1.0-0.0-0.0-0.1","null","fixation","null","<p style='font-size: 48px; color: white'>+</p >","","","","","","","","","","","","","","","","","","","","","","","","","","","","","","","","","","","","","","","","","","","","","","","","",""
