"success","timeout","failed_images","failed_audio","failed_video","trial_type","trial_index","time_elapsed","internal_node_id","rt","part","response","stimulus","correct","choices","correct_choice","trial_duration","response_ends_trial","number_of_apertures","number_of_dots","coherent_direction","coherence","opposite_coherence","dot_radius","dot_side_length","dot_life","move_distance","aperture_width","aperture_height","dot_color","dot_color_final","color_change_delay","target_color_proportion","motion_change_delay","dot_shape","background_color","RDK_type","aperture_type","reinsert_type","frame_rate","frame_rate_array","number_of_frames","aperture_center_x","aperture_center_y","fixation_cross","fixation_cross_width","fixation_cross_height","fixation_cross_color","fixation_cross_thickness","border","border_thickness","border_color","canvas_width","canvas_height","correct_response","data_label","task","difficulty","isMatch","association","label"
"true","false","[]","[]","[]","preload","0","6","0.0-0.0","","","","","","","","","","","","","","","","","","","","","","","","","","","","","","","","","","","","","","","","","","","","","","","","","","","",""
"true","","","","","fullscreen","1","1735132","0.0-1.0","1733541","fullScreen","","","","","","","","","","","","","","","","","","","","","","","","","","","","","","","","","","","","","","","","","","","","","","","","","",""
"","","","","","survey","2","1746535","0.0-2.0","10779","survey","{""sex"":""男"",""age"":18,""hands"":""右"",""color_blindness"":""都不是""}","","","","","","","","","","","","","","","","","","","","","","","","","","","","","","","","","","","","","","","","","","","","","","","","",""
"","","","","","survey-text","3","1755262","0.0-3.0","8137","color_test","{""Q0"":""BE""}","","","","","","","","","","","","","","","","","","","","","","","","","","","","","","","","","","","","","","","","","","","","","","","","",""
"","","","","","html-keyboard-response","4","1760888","0.0-4.0","5036","instruction_beginning"," ","
      <div style=""text-align: left; color: white"">
        <h3 style=""text-align: center; font-size: 30px; margin: 0;"">欢迎参与本实验</h3>
          <p>为充分保障您的权利，请确保您已经知晓并同意《参与实验同意书》以及《数据公开知情同意书》，</p>
          <p>如果您未见过上述内容，请咨询实验员 ，</p>
          <p>如果您选择继续实验，则表示您已经清楚两份知情同意书的内容并同意 。</p>
          <p>在整个实验中，您需要完成两项任务，具体的任务要求会在后面说明 ，</p>
          <p>请按空格键进入实验</p >
      </div>","","","","","","","","","","","","","","","","","","","","","","","","","","","","","","","","","","","","","","","","","","","","","","","",""
"","","","","","html-keyboard-response","5","1778295","0.0-5.0-0.0","16827","instruction_getThreshold"," ","
      <div style=""text-align: left; color: white; padding: 10px""> 
        <h3 style=""text-align: center; font-size: 30px; margin: 10px"">欢迎进入实验！</h3>
        <p>在正式开始前，我们将通过一个快速测试为您打造专属的难度水平。<p>
        <p>接下来，屏幕上会呈现一些运动的彩色圆点，</p>
        <p>其中一定比例的点 <span style=""font-weight: bold"">一致地水平向左或向右运动</span> ，其余点随机方向运动</p >
        <p>您需要<span style=""font-weight: bold"">忽略点的颜色</span>并在3秒内判断一致的运动方向是向左还是向右:</p >
        <ul>
          <li><span style=""font-weight: bold"">向左</span>，请按键盘 <span style=""font-weight: bold"">左键</span></li>
          <li><span style=""font-weight: bold"">向右</span>，请按键盘 <span style=""font-weight: bold"">右键</span> </li>
        </ul>
        <p>如有疑问请向主试咨询，没有则按下空格键开始</p>
      </div>","","","","","","","","","","","","","","","","","","","","","","","","","","","","","","","","","","","","","","","","","","","","","","","",""
"","","","","","html-keyboard-response","6","1779396","0.0-5.0-1.0-0.0-0.0-0.0-0.0-0.0-0.0","null","fixation","null","<p style='font-size: 48px; color: white'>+</p >","","","","","","","","","","","","","","","","","","","","","","","","","","","","","","","","","","","","","","","","","","","","","","","",""
"","","","","","rdk","7","1783002","0.0-5.0-1.0-0.0-0.0-0.0-0.0-0.0-1.0","-1","motion_test","","","false","[""ArrowLeft"",""ArrowRight""]","ArrowLeft","3000","true","1","100","180","0.15","0","3","1","-1","2","300","300","[""hsl(0, 50%, 50%)"",""hsl(225, 50%, 50%)""]","[""white""]","0","0","0","circle","black","3","2","2","16.883977900552487","[11,17,17,17,17,17,17,17,16,16,17,17,17,17,17,16,17,17,17,17,17,17,17,17,17,17,17,17,17,17,16,17,17,17,17,17,17,17,16,17,17,16,17,17,17,17,17,17,17,17,17,17,17,17,17,17,17,17,17,17,16,17,17,17,17,17,17,17,17,17,17,17,17,17,17,17,17,17,17,17,17,17,17,17,17,17,17,17,17,17,16,17,17,17,17,17,17,17,16,17,17,17,17,17,17,17,17,17,17,17,17,17,17,16,17,17,17,17,17,17,16,17,17,17,17,17,17,17,17,17,17,17,17,17,17,16,17,17,17,17,17,17,17,17,17,17,17,17,17,17,17,17,16,17,16,17,17,17,17,17,17,17,17,17,17,17,17,17,17,17,17,17,17,17,17,17,17,17,17,17,16]","181","960","481","false","20","20","black","1","false","1","1","1920","962","ArrowLeft","staircase_motion","","","","",""
"","","","","","html-keyboard-response","8","1784089","0.0-5.0-1.0-0.0-0.0-0.0-0.0-0.0-2.0","null","","null","<p style='font-size: 60px; color: yellow'>太慢!</p>","","","","","","","","","","","","","","","","","","","","","","","","","","","","","","","","","","","","","","","","","","","","","","","",""
"","","","","","html-keyboard-response","9","1785172","0.0-5.0-1.0-0.0-0.0-0.0-0.0-0.0-0.1","null","fixation","null","<p style='font-size: 48px; color: white'>+</p >","","","","","","","","","","","","","","","","","","","","","","","","","","","","","","","","","","","","","","","","","","","","","","","",""
"","","","","","rdk","10","1788770","0.0-5.0-1.0-0.0-0.0-0.0-0.0-0.0-1.1","-1","motion_test","","","false","[""ArrowLeft"",""ArrowRight""]","ArrowRight","3000","true","1","100","0","0.15","0","3","1","-1","2","300","300","[""hsl(0, 50%, 50%)"",""hsl(225, 50%, 50%)""]","[""white""]","0","0","0","circle","black","3","2","2","16.91111111111111","[15,17,17,17,17,17,17,17,17,17,17,17,17,16,17,17,17,17,17,17,17,17,17,17,17,17,17,17,17,17,17,17,17,17,17,17,17,17,17,17,17,17,17,17,17,17,17,17,16,17,17,17,17,17,17,17,17,17,17,17,17,16,17,17,17,17,17,16,17,17,17,17,17,17,17,17,17,17,17,17,17,17,17,17,17,17,17,17,16,17,17,17,17,17,17,17,17,17,17,17,17,17,17,17,17,16,17,17,17,17,17,17,17,17,17,17,17,16,17,17,17,17,17,17,17,17,17,17,16,16,17,17,17,17,16,17,17,17,17,17,16,17,17,17,17,17,16,17,17,17,17,17,17,17,17,17,17,17,17,17,17,17,17,17,17,16,17,17,17,17,17,16,17,17,17,17,17,17,17,17]","180","960","481","false","20","20","black","1","false","1","1","1920","962","ArrowRight","staircase_motion","","","","",""
"","","","","","html-keyboard-response","11","1789865","0.0-5.0-1.0-0.0-0.0-0.0-0.0-0.0-2.1","null","","null","<p style='font-size: 60px; color: yellow'>太慢!</p>","","","","","","","","","","","","","","","","","","","","","","","","","","","","","","","","","","","","","","","","","","","","","","","",""
"","","","","","html-keyboard-response","12","1790956","0.0-5.0-1.0-0.0-0.0-0.0-0.0-0.0-0.2","null","fixation","null","<p style='font-size: 48px; color: white'>+</p >","","","","","","","","","","","","","","","","","","","","","","","","","","","","","","","","","","","","","","","","","","","","","","","",""
"","","","","","rdk","13","1794535","0.0-5.0-1.0-0.0-0.0-0.0-0.0-0.0-1.2","-1","motion_test","","","false","[""ArrowLeft"",""ArrowRight""]","ArrowLeft","3000","true","1","100","180","0.15","0","3","1","-1","2","300","300","[""hsl(0, 50%, 50%)"",""hsl(225, 50%, 50%)""]","[""white""]","0","0","0","circle","black","3","2","2","16.844444444444445","[16,17,17,17,17,17,16,17,17,17,17,17,17,17,17,16,17,17,17,17,17,17,16,16,17,17,17,17,17,17,17,17,17,17,17,17,17,17,17,17,17,17,16,17,17,17,17,17,17,17,17,16,17,17,17,17,16,17,17,17,17,17,16,17,16,17,17,17,17,17,17,16,17,16,17,17,17,17,16,17,17,17,16,17,17,17,17,17,17,17,17,17,17,17,17,17,17,17,17,17,17,17,16,17,16,17,17,17,17,17,17,17,17,17,17,17,16,17,16,17,16,17,17,17,17,17,17,16,17,16,17,17,17,17,17,17,17,17,16,17,17,17,17,17,17,17,17,16,17,17,17,17,16,17,17,17,17,17,17,17,17,17,16,17,17,17,17,17,17,17,17,16,17,17,16,17,17,16,17,17]","180","960","481","false","20","20","black","1","false","1","1","1920","962","ArrowLeft","staircase_motion","","","","",""
"","","","","","html-keyboard-response","14","1795621","0.0-5.0-1.0-0.0-0.0-0.0-0.0-0.0-2.2","null","","null","<p style='font-size: 60px; color: yellow'>太慢!</p>","","","","","","","","","","","","","","","","","","","","","","","","","","","","","","","","","","","","","","","","","","","","","","","",""
"","","","","","html-keyboard-response","15","1796721","0.0-5.0-1.0-0.0-0.0-0.0-0.0-0.0-0.3","null","fixation","null","<p style='font-size: 48px; color: white'>+</p >","","","","","","","","","","","","","","","","","","","","","","","","","","","","","","","","","","","","","","","","","","","","","","","",""
"","","","","","rdk","16","1800301","0.0-5.0-1.0-0.0-0.0-0.0-0.0-0.0-1.3","-1","motion_test","","","false","[""ArrowLeft"",""ArrowRight""]","ArrowRight","3000","true","1","100","0","0.15","0","3","1","-1","2","300","300","[""hsl(0, 50%, 50%)"",""hsl(225, 50%, 50%)""]","[""white""]","0","0","0","circle","black","3","2","2","16.9","[16,17,17,17,17,17,17,17,17,17,17,17,17,17,17,17,17,17,17,17,17,17,17,17,17,17,17,17,17,17,17,17,17,17,17,17,17,17,17,17,17,17,16,17,17,17,17,17,17,17,17,17,17,17,17,17,17,16,17,16,17,17,17,17,17,17,17,17,17,16,17,17,18,15,17,17,17,17,17,17,17,17,17,17,16,17,17,17,17,17,17,17,17,17,17,17,17,17,17,17,16,17,17,17,17,17,17,16,17,16,17,17,17,17,17,16,17,17,17,17,17,17,17,17,17,17,16,17,17,17,17,17,17,16,16,17,17,17,17,17,17,17,17,17,17,17,17,17,17,16,17,17,17,17,17,17,17,18,16,17,17,17,17,17,17,17,17,17,16,17,16,17,17,17,17,17,16,17,17,17]","180","960","481","false","20","20","black","1","false","1","1","1920","962","ArrowRight","staircase_motion","","","","",""
"","","","","","html-keyboard-response","17","1801389","0.0-5.0-1.0-0.0-0.0-0.0-0.0-0.0-2.3","null","","null","<p style='font-size: 60px; color: yellow'>太慢!</p>","","","","","","","","","","","","","","","","","","","","","","","","","","","","","","","","","","","","","","","","","","","","","","","",""
"","","","","","html-keyboard-response","18","1802473","0.0-5.0-1.0-0.0-0.0-0.0-0.0-0.0-0.4","null","fixation","null","<p style='font-size: 48px; color: white'>+</p >","","","","","","","","","","","","","","","","","","","","","","","","","","","","","","","","","","","","","","","","","","","","","","","",""
"","","","","","rdk","19","1806053","0.0-5.0-1.0-0.0-0.0-0.0-0.0-0.0-1.4","-1","motion_test","","","false","[""ArrowLeft"",""ArrowRight""]","ArrowRight","3000","true","1","100","0","0.15","0","3","1","-1","2","300","300","[""hsl(0, 50%, 50%)"",""hsl(225, 50%, 50%)""]","[""white""]","0","0","0","circle","black","3","2","2","16.944444444444443","[16,17,17,17,17,17,17,17,17,17,17,17,17,17,17,17,17,17,17,17,17,17,17,17,17,17,17,17,17,17,17,17,17,17,17,17,16,17,17,17,17,17,17,17,17,17,17,17,17,17,16,17,17,17,17,17,17,17,17,17,17,17,17,17,17,17,16,17,17,17,17,17,17,17,17,17,17,17,17,17,17,17,17,17,17,17,17,17,16,17,17,17,17,17,17,17,17,17,17,17,17,17,17,17,17,17,16,17,17,17,17,17,17,17,17,17,17,17,17,17,17,17,17,17,17,17,17,17,17,17,17,16,17,17,17,17,17,17,17,17,17,17,17,17,17,17,17,17,16,17,17,17,17,17,17,17,17,17,17,17,17,17,17,17,17,17,17,17,17,17,16,17,16,17,17,17,17,17,17,17]","180","960","481","false","20","20","black","1","false","1","1","1920","962","ArrowRight","staircase_motion","","","","",""
"","","","","","html-keyboard-response","20","1807140","0.0-5.0-1.0-0.0-0.0-0.0-0.0-0.0-2.4","null","","null","<p style='font-size: 60px; color: yellow'>太慢!</p>","","","","","","","","","","","","","","","","","","","","","","","","","","","","","","","","","","","","","","","","","","","","","","","",""
"","","","","","html-keyboard-response","21","1808223","0.0-5.0-1.0-0.0-0.0-0.0-0.0-0.0-0.5","null","fixation","null","<p style='font-size: 48px; color: white'>+</p >","","","","","","","","","","","","","","","","","","","","","","","","","","","","","","","","","","","","","","","","","","","","","","","",""
"","","","","","rdk","22","1811818","0.0-5.0-1.0-0.0-0.0-0.0-0.0-0.0-1.5","-1","motion_test","","","false","[""ArrowLeft"",""ArrowRight""]","ArrowRight","3000","true","1","100","0","0.15","0","3","1","-1","2","300","300","[""hsl(0, 50%, 50%)"",""hsl(225, 50%, 50%)""]","[""white""]","0","0","0","circle","black","3","2","2","16.927777777777777","[16,17,17,17,17,17,17,17,17,17,17,17,17,17,17,17,17,17,17,17,17,17,17,17,17,17,17,16,17,17,17,17,17,17,17,17,17,17,17,17,17,17,16,17,17,17,17,17,17,17,16,17,17,17,17,17,17,17,17,17,17,17,17,17,16,17,17,17,17,17,17,17,16,17,17,17,17,17,17,17,17,17,17,17,17,17,17,17,17,17,17,17,17,17,17,17,17,17,17,17,17,17,16,17,17,17,17,17,17,17,17,17,17,16,17,17,17,17,17,17,17,17,17,17,17,17,17,17,17,17,17,17,16,17,17,17,17,17,17,17,17,17,17,17,17,17,17,16,17,17,17,17,17,17,17,17,17,17,17,17,17,17,16,17,17,17,17,17,17,16,17,17,17,17,17,17,17,16,17,17]","180","960","481","false","20","20","black","1","false","1","1","1920","962","ArrowRight","staircase_motion","","","","",""
"","","","","","html-keyboard-response","23","1812903","0.0-5.0-1.0-0.0-0.0-0.0-0.0-0.0-2.5","null","","null","<p style='font-size: 60px; color: yellow'>太慢!</p>","","","","","","","","","","","","","","","","","","","","","","","","","","","","","","","","","","","","","","","","","","","","","","","",""
"","","","","","html-keyboard-response","24","1813989","0.0-5.0-1.0-0.0-0.0-0.0-0.0-0.0-0.6","null","fixation","null","<p style='font-size: 48px; color: white'>+</p >","","","","","","","","","","","","","","","","","","","","","","","","","","","","","","","","","","","","","","","","","","","","","","","",""
"","","","","","rdk","25","1817568","0.0-5.0-1.0-0.0-0.0-0.0-0.0-0.0-1.6","-1","motion_test","","","false","[""ArrowLeft"",""ArrowRight""]","ArrowLeft","3000","true","1","100","180","0.15","0","3","1","-1","2","300","300","[""hsl(0, 50%, 50%)"",""hsl(225, 50%, 50%)""]","[""white""]","0","0","0","circle","black","3","2","2","16.82777777777778","[4,17,17,17,17,17,17,17,17,17,17,17,17,16,17,17,17,17,17,17,17,17,17,17,17,17,17,17,17,17,17,17,17,17,17,17,17,17,17,17,17,17,17,16,17,17,17,16,17,17,17,17,17,17,17,17,17,17,16,17,17,17,17,17,17,16,17,17,17,17,17,17,17,16,17,17,17,17,17,17,17,17,16,17,17,17,17,17,16,17,17,17,17,17,17,17,16,17,17,17,17,17,17,16,17,17,17,17,17,17,17,17,17,17,17,17,17,17,17,17,17,17,17,17,17,17,17,16,18,17,17,17,16,17,17,17,17,17,17,17,17,16,17,17,16,17,17,17,17,17,17,17,17,17,17,17,17,17,17,17,17,17,17,16,17,16,16,17,17,17,17,17,17,17,17,16,17,17,16,17]","180","960","481","false","20","20","black","1","false","1","1","1920","962","ArrowLeft","staircase_motion","","","","",""
"","","","","","html-keyboard-response","26","1818655","0.0-5.0-1.0-0.0-0.0-0.0-0.0-0.0-2.6","null","","null","<p style='font-size: 60px; color: yellow'>太慢!</p>","","","","","","","","","","","","","","","","","","","","","","","","","","","","","","","","","","","","","","","","","","","","","","","",""
"","","","","","html-keyboard-response","27","1819739","0.0-5.0-1.0-0.0-0.0-0.0-0.0-0.0-0.7","null","fixation","null","<p style='font-size: 48px; color: white'>+</p >","","","","","","","","","","","","","","","","","","","","","","","","","","","","","","","","","","","","","","","","","","","","","","","",""
"","","","","","rdk","28","1823318","0.0-5.0-1.0-0.0-0.0-0.0-0.0-0.0-1.7","-1","motion_test","","","false","[""ArrowLeft"",""ArrowRight""]","ArrowLeft","3000","true","1","100","180","0.15","0","3","1","-1","2","300","300","[""hsl(0, 50%, 50%)"",""hsl(225, 50%, 50%)""]","[""white""]","0","0","0","circle","black","3","2","2","16.86111111111111","[17,16,17,17,17,17,17,17,17,17,17,18,16,17,17,17,17,17,17,17,17,17,17,17,17,17,17,16,17,16,17,17,17,17,17,17,17,17,17,16,17,16,17,17,17,17,17,17,17,17,17,16,17,17,17,17,17,16,17,17,17,17,17,17,17,17,17,17,17,17,17,17,17,17,16,17,17,17,17,17,16,17,16,17,17,17,17,17,17,16,17,17,17,17,17,17,17,17,17,17,17,17,16,17,16,17,17,17,17,17,16,17,17,17,17,17,17,16,17,16,17,17,17,17,17,17,17,17,17,17,17,17,16,17,16,17,17,17,17,17,17,17,17,17,17,17,16,17,17,17,17,17,17,17,17,16,16,17,17,17,17,17,17,17,17,17,17,17,17,17,17,17,17,17,16,17,16,17,16,16]","180","960","481","false","20","20","black","1","false","1","1","1920","962","ArrowLeft","staircase_motion","","","","",""
"","","","","","html-keyboard-response","29","1824399","0.0-5.0-1.0-0.0-0.0-0.0-0.0-0.0-2.7","null","","null","<p style='font-size: 60px; color: yellow'>太慢!</p>","","","","","","","","","","","","","","","","","","","","","","","","","","","","","","","","","","","","","","","","","","","","","","","",""
"","","","","","html-keyboard-response","30","1825488","0.0-5.0-1.0-0.0-0.0-0.0-0.0-0.0-0.8","null","fixation","null","<p style='font-size: 48px; color: white'>+</p >","","","","","","","","","","","","","","","","","","","","","","","","","","","","","","","","","","","","","","","","","","","","","","","",""
"","","","","","rdk","31","1829068","0.0-5.0-1.0-0.0-0.0-0.0-0.0-0.0-1.8","-1","motion_test","","","false","[""ArrowLeft"",""ArrowRight""]","ArrowLeft","3000","true","1","100","180","0.15","0","3","1","-1","2","300","300","[""hsl(0, 50%, 50%)"",""hsl(225, 50%, 50%)""]","[""white""]","0","0","0","circle","black","3","2","2","16.899441340782122","[17,17,17,17,17,17,17,16,16,17,17,17,17,17,17,17,17,17,17,17,16,17,17,17,17,17,17,17,17,16,17,16,17,17,17,17,17,17,17,17,17,17,16,17,16,17,17,17,17,17,17,17,17,17,17,17,17,17,17,17,17,17,17,17,17,17,17,17,17,17,17,17,17,17,17,17,17,17,17,17,17,17,17,17,17,17,17,16,17,16,17,17,17,16,17,17,17,17,17,17,17,17,17,17,17,16,16,17,17,17,17,17,17,17,17,17,17,16,17,17,17,17,17,17,17,17,17,17,17,17,17,17,17,17,17,17,17,16,17,17,17,17,17,17,17,17,17,16,17,17,17,17,17,16,17,17,17,17,17,17,17,17,16,17,16,17,17,17,17,17,17,17,17,17,17,17,17,17,17]","179","960","481","false","20","20","black","1","false","1","1","1920","962","ArrowLeft","staircase_motion","","","","",""
"","","","","","html-keyboard-response","32","1830154","0.0-5.0-1.0-0.0-0.0-0.0-0.0-0.0-2.8","null","","null","<p style='font-size: 60px; color: yellow'>太慢!</p>","","","","","","","","","","","","","","","","","","","","","","","","","","","","","","","","","","","","","","","","","","","","","","","",""
"","","","","","html-keyboard-response","33","1831238","0.0-5.0-1.0-0.0-0.0-0.0-0.0-0.0-0.9","null","fixation","null","<p style='font-size: 48px; color: white'>+</p >","","","","","","","","","","","","","","","","","","","","","","","","","","","","","","","","","","","","","","","","","","","","","","","",""
"","","","","","rdk","34","1834818","0.0-5.0-1.0-0.0-0.0-0.0-0.0-0.0-1.9","-1","motion_test","","","false","[""ArrowLeft"",""ArrowRight""]","ArrowLeft","3000","true","1","100","180","0.15","0","3","1","-1","2","300","300","[""hsl(0, 50%, 50%)"",""hsl(225, 50%, 50%)""]","[""white""]","0","0","0","circle","black","3","2","2","16.933333333333334","[19,16,17,17,17,17,17,17,17,17,17,16,17,17,17,17,17,17,17,17,17,17,17,17,17,17,17,16,17,17,17,17,17,17,17,17,17,17,17,17,17,17,16,17,17,17,17,17,17,17,17,16,17,17,17,17,16,17,17,17,17,17,17,17,17,16,17,17,17,17,17,17,17,17,17,17,17,17,17,17,17,17,17,17,17,17,17,16,17,17,17,17,17,17,17,17,17,17,17,17,17,17,16,17,17,17,17,17,17,17,17,17,17,17,17,17,17,16,17,17,17,17,17,17,17,17,17,17,17,17,17,17,16,17,17,17,17,17,17,17,17,17,17,17,17,17,17,16,17,17,17,17,17,17,17,17,17,17,17,17,17,16,17,17,17,17,17,17,17,17,17,17,17,17,17,17,17,16,17,17]","180","960","481","false","20","20","black","1","false","1","1","1920","962","ArrowLeft","staircase_motion","","","","",""
"","","","","","html-keyboard-response","35","1835905","0.0-5.0-1.0-0.0-0.0-0.0-0.0-0.0-2.9","null","","null","<p style='font-size: 60px; color: yellow'>太慢!</p>","","","","","","","","","","","","","","","","","","","","","","","","","","","","","","","","","","","","","","","","","","","","","","","",""
"","","","","","html-keyboard-response","36","1836990","0.0-5.0-1.0-0.0-0.0-0.0-0.0-0.0-0.10","null","fixation","null","<p style='font-size: 48px; color: white'>+</p >","","","","","","","","","","","","","","","","","","","","","","","","","","","","","","","","","","","","","","","","","","","","","","","",""
"","","","","","rdk","37","1840569","0.0-5.0-1.0-0.0-0.0-0.0-0.0-0.0-1.10","-1","motion_test","","","false","[""ArrowLeft"",""ArrowRight""]","ArrowRight","3000","true","1","100","0","0.15","0","3","1","-1","2","300","300","[""hsl(0, 50%, 50%)"",""hsl(225, 50%, 50%)""]","[""white""]","0","0","0","circle","black","3","2","2","16.88888888888889","[16,17,16,17,17,17,17,17,17,17,17,17,17,17,17,16,17,17,17,17,17,17,17,17,17,17,17,17,17,17,17,17,17,17,17,17,16,17,17,17,17,17,17,17,17,17,17,17,17,17,17,17,17,17,17,17,17,16,17,17,17,16,17,17,17,17,17,17,17,17,17,17,17,16,17,17,17,17,17,17,17,17,17,17,16,16,17,17,17,17,17,17,17,17,17,17,17,17,17,17,17,17,17,17,17,17,17,17,17,17,17,17,17,17,17,17,17,16,17,17,17,17,17,17,17,17,17,16,16,17,17,17,17,17,17,17,17,17,17,17,17,16,16,17,17,17,17,17,17,17,17,17,17,17,17,16,17,17,17,17,17,17,16,17,17,17,17,16,15,17,17,17,17,17,17,17,17,16,17,17]","180","960","481","false","20","20","black","1","false","1","1","1920","962","ArrowRight","staircase_motion","","","","",""
"","","","","","html-keyboard-response","38","1841666","0.0-5.0-1.0-0.0-0.0-0.0-0.0-0.0-2.10","null","","null","<p style='font-size: 60px; color: yellow'>太慢!</p>","","","","","","","","","","","","","","","","","","","","","","","","","","","","","","","","","","","","","","","","","","","","","","","",""
"","","","","","html-keyboard-response","39","1842754","0.0-5.0-1.0-0.0-0.0-0.0-0.0-0.0-0.11","null","fixation","null","<p style='font-size: 48px; color: white'>+</p >","","","","","","","","","","","","","","","","","","","","","","","","","","","","","","","","","","","","","","","","","","","","","","","",""
"","","","","","rdk","40","1846352","0.0-5.0-1.0-0.0-0.0-0.0-0.0-0.0-1.11","-1","motion_test","","","false","[""ArrowLeft"",""ArrowRight""]","ArrowRight","3000","true","1","100","0","0.15","0","3","1","-1","2","300","300","[""hsl(0, 50%, 50%)"",""hsl(225, 50%, 50%)""]","[""white""]","0","0","0","circle","black","3","2","2","16.894444444444446","[15,17,17,17,17,17,17,17,16,17,16,17,17,17,17,16,17,16,17,17,17,17,16,17,17,17,17,17,17,17,17,17,17,17,17,17,17,17,16,17,17,17,17,17,17,17,17,17,17,17,17,17,17,17,17,17,17,17,17,17,17,16,17,17,17,17,17,17,17,17,17,17,17,16,17,17,16,17,17,17,17,17,17,17,17,17,16,17,17,17,17,17,17,17,17,17,17,17,16,17,17,17,17,17,17,17,17,17,17,17,17,17,17,17,17,17,17,17,17,17,17,17,17,17,17,17,17,17,15,17,17,17,16,17,17,17,17,17,17,17,17,17,17,17,17,17,17,17,17,17,17,17,17,16,17,16,17,17,16,17,17,17,17,17,17,17,17,17,17,17,17,17,17,17,17,17,17,17,17,17]","180","960","481","false","20","20","black","1","false","1","1","1920","962","ArrowRight","staircase_motion","","","","",""
"","","","","","html-keyboard-response","41","1847436","0.0-5.0-1.0-0.0-0.0-0.0-0.0-0.0-2.11","null","","null","<p style='font-size: 60px; color: yellow'>太慢!</p>","","","","","","","","","","","","","","","","","","","","","","","","","","","","","","","","","","","","","","","","","","","","","","","",""
"","","","","","html-keyboard-response","42","1850022","0.0-5.0-1.0-0.0-0.0-0.0-0.0-1.0","null","","null","<p style='font-size: 35px; color: white'>您的正确率为： 0% 。平均反应时为：-1毫秒。</p>","","","","","","","","","","","","","","","","","","","","","","","","","","","","","","","","","","","","","","","","","","","","","","","",""
"","","","","","html-keyboard-response","43","1851105","0.0-5.0-1.0-0.0-0.0-1.0-0.0-0.0-0.0","null","fixation","null","<p style='font-size: 48px; color: white'>+</p >","","","","","","","","","","","","","","","","","","","","","","","","","","","","","","","","","","","","","","","","","","","","","","","",""
"","","","","","rdk","44","1854685","0.0-5.0-1.0-0.0-0.0-1.0-0.0-0.0-1.0","-1","motion_test","","","false","[""ArrowLeft"",""ArrowRight""]","ArrowRight","3000","true","1","100","0","0.11","0","3","1","-1","2","300","300","[""hsl(0, 50%, 50%)"",""hsl(225, 50%, 50%)""]","[""white""]","0","0","0","circle","black","3","2","2","16.877777777777776","[16,17,17,17,17,17,17,17,17,17,17,17,17,17,17,17,17,16,17,17,17,17,17,17,17,17,17,17,17,17,17,17,17,17,17,17,17,17,17,17,17,17,16,17,16,17,17,17,17,16,17,17,17,16,17,16,17,17,17,17,17,17,17,17,17,17,17,17,17,17,17,17,17,16,17,17,17,17,17,17,17,17,17,17,17,17,17,17,17,17,17,17,17,17,16,17,17,17,17,16,17,17,17,17,17,17,16,17,17,17,17,17,17,16,17,16,17,17,17,17,17,17,17,17,17,16,17,16,17,17,17,17,19,14,17,17,17,17,17,16,17,16,17,17,17,16,17,17,17,17,17,17,16,17,17,17,17,17,17,17,17,17,17,17,17,17,17,17,16,17,17,17,17,17,17,16,17,17,17,17]","180","960","481","false","20","20","black","1","false","1","1","1920","962","ArrowRight","staircase_motion","","","","",""
"","","","","","html-keyboard-response","45","1855770","0.0-5.0-1.0-0.0-0.0-1.0-0.0-0.0-2.0","null","","null","<p style='font-size: 60px; color: yellow'>太慢!</p>","","","","","","","","","","","","","","","","","","","","","","","","","","","","","","","","","","","","","","","","","","","","","","","",""
"","","","","","html-keyboard-response","46","1856856","0.0-5.0-1.0-0.0-0.0-1.0-0.0-0.0-0.1","null","fixation","null","<p style='font-size: 48px; color: white'>+</p >","","","","","","","","","","","","","","","","","","","","","","","","","","","","","","","","","","","","","","","","","","","","","","","",""
"","","","","","rdk","47","1860434","0.0-5.0-1.0-0.0-0.0-1.0-0.0-0.0-1.1","-1","motion_test","","","false","[""ArrowLeft"",""ArrowRight""]","ArrowLeft","3000","true","1","100","180","0.11","0","3","1","-1","2","300","300","[""hsl(0, 50%, 50%)"",""hsl(225, 50%, 50%)""]","[""white""]","0","0","0","circle","black","3","2","2","16.933333333333334","[18,16,17,16,17,18,17,17,17,17,17,17,17,17,17,16,17,16,17,17,17,17,17,17,17,17,17,17,17,17,17,17,17,17,17,17,17,17,17,17,17,17,17,17,17,17,17,17,17,17,17,16,17,17,17,17,17,17,17,17,17,17,17,17,17,17,16,17,17,17,17,17,17,17,17,17,17,17,17,16,17,17,17,17,17,17,17,17,16,17,16,17,17,17,17,17,17,17,17,17,17,17,17,17,17,17,17,17,17,17,17,17,16,17,16,17,17,17,17,17,17,17,17,17,16,16,17,17,17,17,17,17,17,17,17,17,17,17,17,17,17,17,17,17,17,17,17,17,17,17,17,17,17,17,17,17,17,17,17,17,17,17,17,16,17,17,17,17,17,17,17,17,17,17,17,17,17,17,17,17]","180","960","481","false","20","20","black","1","false","1","1","1920","962","ArrowLeft","staircase_motion","","","","",""
"","","","","","html-keyboard-response","48","1861529","0.0-5.0-1.0-0.0-0.0-1.0-0.0-0.0-2.1","null","","null","<p style='font-size: 60px; color: yellow'>太慢!</p>","","","","","","","","","","","","","","","","","","","","","","","","","","","","","","","","","","","","","","","","","","","","","","","",""
"","","","","","html-keyboard-response","49","1862622","0.0-5.0-1.0-0.0-0.0-1.0-0.0-0.0-0.2","null","fixation","null","<p style='font-size: 48px; color: white'>+</p >","","","","","","","","","","","","","","","","","","","","","","","","","","","","","","","","","","","","","","","","","","","","","","","",""
"","","","","","rdk","50","1866202","0.0-5.0-1.0-0.0-0.0-1.0-0.0-0.0-1.2","-1","motion_test","","","false","[""ArrowLeft"",""ArrowRight""]","ArrowLeft","3000","true","1","100","180","0.11","0","3","1","-1","2","300","300","[""hsl(0, 50%, 50%)"",""hsl(225, 50%, 50%)""]","[""white""]","0","0","0","circle","black","3","2","2","16.966666666666665","[16,17,17,17,17,17,17,17,17,17,17,17,17,17,17,17,17,17,17,17,17,17,16,17,17,17,17,17,17,17,17,17,17,17,17,17,17,17,17,17,17,17,17,17,17,17,17,17,17,17,17,17,17,17,16,17,17,17,17,17,17,17,17,17,17,17,17,17,17,17,17,17,17,17,17,17,17,17,17,17,17,17,17,17,17,17,17,17,16,18,17,17,17,17,17,17,17,17,17,17,17,17,16,17,17,17,17,17,17,17,17,17,17,17,17,17,17,17,17,17,17,17,17,17,17,17,17,17,17,17,17,17,17,17,17,17,17,17,17,17,17,17,16,17,17,17,17,17,17,17,17,17,17,17,17,17,17,17,17,17,17,17,16,17,17,17,17,17,17,17,17,17,17,17,17,17,17,17,17,17]","180","960","481","false","20","20","black","1","false","1","1","1920","962","ArrowLeft","staircase_motion","","","","",""
"","","","","","html-keyboard-response","51","1867289","0.0-5.0-1.0-0.0-0.0-1.0-0.0-0.0-2.2","null","","null","<p style='font-size: 60px; color: yellow'>太慢!</p>","","","","","","","","","","","","","","","","","","","","","","","","","","","","","","","","","","","","","","","","","","","","","","","",""
"","","","","","html-keyboard-response","52","1868373","0.0-5.0-1.0-0.0-0.0-1.0-0.0-0.0-0.3","null","fixation","null","<p style='font-size: 48px; color: white'>+</p >","","","","","","","","","","","","","","","","","","","","","","","","","","","","","","","","","","","","","","","","","","","","","","","",""
"","","","","","rdk","53","1870743","0.0-5.0-1.0-0.0-0.0-1.0-0.0-0.0-1.3","1793","motion_test","arrowright","","true","[""ArrowLeft"",""ArrowRight""]","ArrowRight","3000","true","1","100","0","0.11","0","3","1","-1","2","300","300","[""hsl(0, 50%, 50%)"",""hsl(225, 50%, 50%)""]","[""white""]","0","0","0","circle","black","3","2","2","16.953271028037385","[17,17,17,17,17,17,16,17,17,17,17,17,17,17,17,17,17,17,17,16,17,17,17,17,17,17,17,17,17,17,17,17,17,17,17,17,17,17,17,17,17,17,17,17,16,17,17,17,17,17,17,17,17,17,17,17,17,17,17,17,17,17,17,17,17,17,17,17,17,17,17,17,16,17,17,17,17,17,17,17,17,17,17,17,17,17,17,17,17,17,17,17,17,17,17,17,17,16,17,17,17,17,17,17,17,17,17]","107","960","481","false","20","20","black","1","false","1","1","1920","962","ArrowRight","staircase_motion","","","","",""
"","","","","","html-keyboard-response","54","1871823","0.0-5.0-1.0-0.0-0.0-1.0-0.0-0.0-2.3","null","","null","<p style='font-size: 60px; color: green'>正确!</p>","","","","","","","","","","","","","","","","","","","","","","","","","","","","","","","","","","","","","","","","","","","","","","","",""
"","","","","","html-keyboard-response","55","1872906","0.0-5.0-1.0-0.0-0.0-1.0-0.0-0.0-0.4","null","fixation","null","<p style='font-size: 48px; color: white'>+</p >","","","","","","","","","","","","","","","","","","","","","","","","","","","","","","","","","","","","","","","","","","","","","","","",""
"","","","","","rdk","56","1875367","0.0-5.0-1.0-0.0-0.0-1.0-0.0-0.0-1.4","1882","motion_test","arrowright","","true","[""ArrowLeft"",""ArrowRight""]","ArrowRight","3000","true","1","100","0","0.11","0","3","1","-1","2","300","300","[""hsl(0, 50%, 50%)"",""hsl(225, 50%, 50%)""]","[""white""]","0","0","0","circle","black","3","2","2","16.973214285714285","[16,17,17,17,17,17,17,17,17,17,17,17,17,17,17,17,17,17,17,17,17,17,17,17,17,17,17,17,17,16,17,17,17,17,17,17,17,17,17,17,17,17,17,16,17,17,17,17,17,17,17,17,17,17,17,17,17,17,17,17,17,17,17,17,17,17,17,17,17,17,17,17,17,17,17,17,17,17,17,17,17,17,17,17,17,17,17,17,17,17,17,17,17,17,17,17,17,17,17,17,17,17,17,17,17,17,17,17,17,17,17,17]","112","960","481","false","20","20","black","1","false","1","1","1920","962","ArrowRight","staircase_motion","","","","",""
"","","","","","html-keyboard-response","57","1876455","0.0-5.0-1.0-0.0-0.0-1.0-0.0-0.0-2.4","null","","null","<p style='font-size: 60px; color: green'>正确!</p>","","","","","","","","","","","","","","","","","","","","","","","","","","","","","","","","","","","","","","","","","","","","","","","",""
"","","","","","html-keyboard-response","58","1877539","0.0-5.0-1.0-0.0-0.0-1.0-0.0-0.0-0.5","null","fixation","null","<p style='font-size: 48px; color: white'>+</p >","","","","","","","","","","","","","","","","","","","","","","","","","","","","","","","","","","","","","","","","","","","","","","","",""
"","","","","","rdk","59","1878895","0.0-5.0-1.0-0.0-0.0-1.0-0.0-0.0-1.5","777","motion_test","arrowright","","true","[""ArrowLeft"",""ArrowRight""]","ArrowRight","3000","true","1","100","0","0.11","0","3","1","-1","2","300","300","[""hsl(0, 50%, 50%)"",""hsl(225, 50%, 50%)""]","[""white""]","0","0","0","circle","black","3","2","2","16.955555555555556","[16,17,17,17,17,17,17,17,17,17,17,17,17,17,17,17,17,17,17,17,17,17,17,17,16,17,17,17,17,17,17,17,17,17,17,17,17,17,17,17,17,17,17,17,17]","45","960","481","false","20","20","black","1","false","1","1","1920","962","ArrowRight","staircase_motion","","","","",""
"","","","","","html-keyboard-response","60","1879989","0.0-5.0-1.0-0.0-0.0-1.0-0.0-0.0-2.5","null","","null","<p style='font-size: 60px; color: green'>正确!</p>","","","","","","","","","","","","","","","","","","","","","","","","","","","","","","","","","","","","","","","","","","","","","","","",""
"","","","","","html-keyboard-response","61","1881073","0.0-5.0-1.0-0.0-0.0-1.0-0.0-0.0-0.6","null","fixation","null","<p style='font-size: 48px; color: white'>+</p >","","","","","","","","","","","","","","","","","","","","","","","","","","","","","","","","","","","","","","","","","","","","","","","",""
"","","","","","rdk","62","1882911","0.0-5.0-1.0-0.0-0.0-1.0-0.0-0.0-1.6","1261","motion_test","arrowleft","","true","[""ArrowLeft"",""ArrowRight""]","ArrowLeft","3000","true","1","100","180","0.11","0","3","1","-1","2","300","300","[""hsl(0, 50%, 50%)"",""hsl(225, 50%, 50%)""]","[""white""]","0","0","0","circle","black","3","2","2","17","[19,16,17,17,17,17,17,17,17,17,17,17,17,17,17,17,17,17,17,17,17,17,17,17,17,17,17,17,17,17,17,17,17,17,17,17,17,17,17,17,17,17,17,17,17,17,17,17,17,17,17,17,17,17,17,16,17,17,17,17,17,17,17,17,17,17,17,17,17,17,17,17,17,17,17]","75","960","481","false","20","20","black","1","false","1","1","1920","962","ArrowLeft","staircase_motion","","","","",""
"","","","","","html-keyboard-response","63","1883989","0.0-5.0-1.0-0.0-0.0-1.0-0.0-0.0-2.6","null","","null","<p style='font-size: 60px; color: green'>正确!</p>","","","","","","","","","","","","","","","","","","","","","","","","","","","","","","","","","","","","","","","","","","","","","","","",""
"","","","","","html-keyboard-response","64","1885072","0.0-5.0-1.0-0.0-0.0-1.0-0.0-0.0-0.7","null","fixation","null","<p style='font-size: 48px; color: white'>+</p >","","","","","","","","","","","","","","","","","","","","","","","","","","","","","","","","","","","","","","","","","","","","","","","",""
"","","","","","rdk","65","1886390","0.0-5.0-1.0-0.0-0.0-1.0-0.0-0.0-1.7","740","motion_test","arrowleft","","true","[""ArrowLeft"",""ArrowRight""]","ArrowLeft","3000","true","1","100","180","0.11","0","3","1","-1","2","300","300","[""hsl(0, 50%, 50%)"",""hsl(225, 50%, 50%)""]","[""white""]","0","0","0","circle","black","3","2","2","16.863636363636363","[16,16,17,17,17,17,17,17,17,17,17,17,17,17,17,17,16,16,17,17,17,17,17,17,17,17,17,17,17,17,17,16,17,16,17,17,17,17,17,17,17,17,17,17]","44","960","481","false","20","20","black","1","false","1","1","1920","962","ArrowLeft","staircase_motion","","","","",""
"","","","","","html-keyboard-response","66","1887472","0.0-5.0-1.0-0.0-0.0-1.0-0.0-0.0-2.7","null","","null","<p style='font-size: 60px; color: green'>正确!</p>","","","","","","","","","","","","","","","","","","","","","","","","","","","","","","","","","","","","","","","","","","","","","","","",""
"","","","","","html-keyboard-response","67","1888555","0.0-5.0-1.0-0.0-0.0-1.0-0.0-0.0-0.8","null","fixation","null","<p style='font-size: 48px; color: white'>+</p >","","","","","","","","","","","","","","","","","","","","","","","","","","","","","","","","","","","","","","","","","","","","","","","",""
"","","","","","rdk","68","1890454","0.0-5.0-1.0-0.0-0.0-1.0-0.0-0.0-1.8","1319","motion_test","arrowright","","true","[""ArrowLeft"",""ArrowRight""]","ArrowRight","3000","true","1","100","0","0.11","0","3","1","-1","2","300","300","[""hsl(0, 50%, 50%)"",""hsl(225, 50%, 50%)""]","[""white""]","0","0","0","circle","black","3","2","2","16.936708860759495","[16,17,17,17,17,17,17,17,17,17,17,17,17,17,17,17,17,17,17,17,17,17,17,17,17,17,17,17,17,17,17,17,17,17,17,17,17,17,16,17,17,17,17,17,17,17,17,17,17,17,17,17,17,17,17,17,17,17,17,17,16,16,17,17,17,17,17,17,17,17,17,17,17,17,17,16,17,17,17]","79","960","481","false","20","20","black","1","false","1","1","1920","962","ArrowRight","staircase_motion","","","","",""
"","","","","","html-keyboard-response","69","1891539","0.0-5.0-1.0-0.0-0.0-1.0-0.0-0.0-2.8","null","","null","<p style='font-size: 60px; color: green'>正确!</p>","","","","","","","","","","","","","","","","","","","","","","","","","","","","","","","","","","","","","","","","","","","","","","","",""
"","","","","","html-keyboard-response","70","1892623","0.0-5.0-1.0-0.0-0.0-1.0-0.0-0.0-0.9","null","fixation","null","<p style='font-size: 48px; color: white'>+</p >","","","","","","","","","","","","","","","","","","","","","","","","","","","","","","","","","","","","","","","","","","","","","","","",""
"","","","","","rdk","71","1894070","0.0-5.0-1.0-0.0-0.0-1.0-0.0-0.0-1.9","869","motion_test","arrowleft","","true","[""ArrowLeft"",""ArrowRight""]","ArrowLeft","3000","true","1","100","180","0.11","0","3","1","-1","2","300","300","[""hsl(0, 50%, 50%)"",""hsl(225, 50%, 50%)""]","[""white""]","0","0","0","circle","black","3","2","2","16.96153846153846","[16,17,17,17,17,17,17,17,17,17,17,17,17,17,17,17,17,17,17,17,17,17,17,17,17,17,17,17,17,16,17,17,17,17,17,17,17,17,17,17,17,17,17,17,17,17,17,17,17,17,17,17]","52","960","481","false","20","20","black","1","false","1","1","1920","962","ArrowLeft","staircase_motion","","","","",""
"","","","","","html-keyboard-response","72","1895155","0.0-5.0-1.0-0.0-0.0-1.0-0.0-0.0-2.9","null","","null","<p style='font-size: 60px; color: green'>正确!</p>","","","","","","","","","","","","","","","","","","","","","","","","","","","","","","","","","","","","","","","","","","","","","","","",""
"","","","","","html-keyboard-response","73","1896239","0.0-5.0-1.0-0.0-0.0-1.0-0.0-0.0-0.10","null","fixation","null","<p style='font-size: 48px; color: white'>+</p >","","","","","","","","","","","","","","","","","","","","","","","","","","","","","","","","","","","","","","","","","","","","","","","",""
"","","","","","rdk","74","1897551","0.0-5.0-1.0-0.0-0.0-1.0-0.0-0.0-1.10","733","motion_test","arrowleft","","true","[""ArrowLeft"",""ArrowRight""]","ArrowLeft","3000","true","1","100","180","0.11","0","3","1","-1","2","300","300","[""hsl(0, 50%, 50%)"",""hsl(225, 50%, 50%)""]","[""white""]","0","0","0","circle","black","3","2","2","16.906976744186046","[16,16,17,17,17,17,17,17,17,17,17,17,17,17,17,17,17,17,17,17,17,16,17,16,17,17,17,17,17,17,17,17,17,17,17,17,17,17,17,17,17,17,17]","43","960","481","false","20","20","black","1","false","1","1","1920","962","ArrowLeft","staircase_motion","","","","",""
"","","","","","html-keyboard-response","75","1898638","0.0-5.0-1.0-0.0-0.0-1.0-0.0-0.0-2.10","null","","null","<p style='font-size: 60px; color: green'>正确!</p>","","","","","","","","","","","","","","","","","","","","","","","","","","","","","","","","","","","","","","","","","","","","","","","",""
"","","","","","html-keyboard-response","76","1899721","0.0-5.0-1.0-0.0-0.0-1.0-0.0-0.0-0.11","null","fixation","null","<p style='font-size: 48px; color: white'>+</p >","","","","","","","","","","","","","","","","","","","","","","","","","","","","","","","","","","","","","","","","","","","","","","","",""
"","","","","","rdk","77","1900902","0.0-5.0-1.0-0.0-0.0-1.0-0.0-0.0-1.11","601","motion_test","arrowright","","true","[""ArrowLeft"",""ArrowRight""]","ArrowRight","3000","true","1","100","0","0.11","0","3","1","-1","2","300","300","[""hsl(0, 50%, 50%)"",""hsl(225, 50%, 50%)""]","[""white""]","0","0","0","circle","black","3","2","2","16.944444444444443","[16,17,17,17,17,17,17,17,17,17,17,17,17,17,17,16,17,17,17,17,17,17,17,17,17,17,17,17,17,17,17,17,17,17,17,17]","36","960","481","false","20","20","black","1","false","1","1","1920","962","ArrowRight","staircase_motion","","","","",""
"","","","","","html-keyboard-response","78","1901989","0.0-5.0-1.0-0.0-0.0-1.0-0.0-0.0-2.11","null","","null","<p style='font-size: 60px; color: green'>正确!</p>","","","","","","","","","","","","","","","","","","","","","","","","","","","","","","","","","","","","","","","","","","","","","","","",""
"","","","","","html-keyboard-response","79","1904572","0.0-5.0-1.0-0.0-0.0-1.0-0.0-1.0","null","","null","<p style='font-size: 35px; color: white'>您的正确率为： 75% 。平均反应时为：831毫秒。</p>","","","","","","","","","","","","","","","","","","","","","","","","","","","","","","","","","","","","","","","","","","","","","","","",""
"","","","","","html-keyboard-response","80","1905655","0.0-5.0-1.0-0.0-0.0-2.0-0.0-0.0-0.0","null","fixation","null","<p style='font-size: 48px; color: white'>+</p >","","","","","","","","","","","","","","","","","","","","","","","","","","","","","","","","","","","","","","","","","","","","","","","",""
"","","","","","rdk","81","1907215","0.0-5.0-1.0-0.0-0.0-2.0-0.0-0.0-1.0","980","motion_test","arrowright","","true","[""ArrowLeft"",""ArrowRight""]","ArrowRight","3000","true","1","100","0","0.08","0","3","1","-1","2","300","300","[""hsl(0, 50%, 50%)"",""hsl(225, 50%, 50%)""]","[""white""]","0","0","0","circle","black","3","2","2","16.896551724137932","[15,17,16,17,17,17,17,17,17,17,17,17,17,17,17,17,17,17,17,17,17,17,17,16,17,17,17,17,17,17,17,17,16,17,16,17,17,17,17,17,17,17,17,17,17,17,17,17,17,17,17,17,17,17,17,17,17,17]","58","960","481","false","20","20","black","1","false","1","1","1920","962","ArrowRight","staircase_motion","","","","",""
"","","","","","html-keyboard-response","82","1908305","0.0-5.0-1.0-0.0-0.0-2.0-0.0-0.0-2.0","null","","null","<p style='font-size: 60px; color: green'>正确!</p>","","","","","","","","","","","","","","","","","","","","","","","","","","","","","","","","","","","","","","","","","","","","","","","",""
"","","","","","html-keyboard-response","83","1909389","0.0-5.0-1.0-0.0-0.0-2.0-0.0-0.0-0.1","null","fixation","null","<p style='font-size: 48px; color: white'>+</p >","","","","","","","","","","","","","","","","","","","","","","","","","","","","","","","","","","","","","","","","","","","","","","","",""
"","","","","","rdk","84","1910575","0.0-5.0-1.0-0.0-0.0-2.0-0.0-0.0-1.1","607","motion_test","arrowright","","true","[""ArrowLeft"",""ArrowRight""]","ArrowRight","3000","true","1","100","0","0.08","0","3","1","-1","2","300","300","[""hsl(0, 50%, 50%)"",""hsl(225, 50%, 50%)""]","[""white""]","0","0","0","circle","black","3","2","2","16.97222222222222","[16,17,17,17,17,17,17,17,17,17,17,17,17,17,17,17,17,17,17,17,17,17,17,17,17,17,17,17,17,17,17,17,17,17,17,17]","36","960","481","false","20","20","black","1","false","1","1","1920","962","ArrowRight","staircase_motion","","","","",""
"","","","","","html-keyboard-response","85","1911655","0.0-5.0-1.0-0.0-0.0-2.0-0.0-0.0-2.1","null","","null","<p style='font-size: 60px; color: green'>正确!</p>","","","","","","","","","","","","","","","","","","","","","","","","","","","","","","","","","","","","","","","","","","","","","","","",""
"","","","","","html-keyboard-response","86","1912739","0.0-5.0-1.0-0.0-0.0-2.0-0.0-0.0-0.2","null","fixation","null","<p style='font-size: 48px; color: white'>+</p >","","","","","","","","","","","","","","","","","","","","","","","","","","","","","","","","","","","","","","","","","","","","","","","",""
"","","","","","rdk","87","1913991","0.0-5.0-1.0-0.0-0.0-2.0-0.0-0.0-1.2","673","motion_test","arrowleft","","true","[""ArrowLeft"",""ArrowRight""]","ArrowLeft","3000","true","1","100","180","0.08","0","3","1","-1","2","300","300","[""hsl(0, 50%, 50%)"",""hsl(225, 50%, 50%)""]","[""white""]","0","0","0","circle","black","3","2","2","16.974358974358974","[16,17,17,17,17,17,17,17,17,17,17,17,17,17,17,17,17,17,17,17,17,17,17,17,17,17,17,17,17,17,17,17,17,17,17,17,17,17,17]","39","960","481","false","20","20","black","1","false","1","1","1920","962","ArrowLeft","staircase_motion","","","","",""
"","","","","","html-keyboard-response","88","1915072","0.0-5.0-1.0-0.0-0.0-2.0-0.0-0.0-2.2","null","","null","<p style='font-size: 60px; color: green'>正确!</p>","","","","","","","","","","","","","","","","","","","","","","","","","","","","","","","","","","","","","","","","","","","","","","","",""
"","","","","","html-keyboard-response","89","1916156","0.0-5.0-1.0-0.0-0.0-2.0-0.0-0.0-0.3","null","fixation","null","<p style='font-size: 48px; color: white'>+</p >","","","","","","","","","","","","","","","","","","","","","","","","","","","","","","","","","","","","","","","","","","","","","","","",""
"","","","","","rdk","90","1917526","0.0-5.0-1.0-0.0-0.0-2.0-0.0-0.0-1.3","792","motion_test","arrowleft","","true","[""ArrowLeft"",""ArrowRight""]","ArrowLeft","3000","true","1","100","180","0.08","0","3","1","-1","2","300","300","[""hsl(0, 50%, 50%)"",""hsl(225, 50%, 50%)""]","[""white""]","0","0","0","circle","black","3","2","2","16.97826086956522","[16,17,17,17,17,17,17,17,17,17,17,17,17,17,17,17,17,17,17,17,17,17,17,17,17,17,17,17,17,17,17,17,17,17,17,17,17,17,17,17,17,17,17,17,17,17]","46","960","481","false","20","20","black","1","false","1","1","1920","962","ArrowLeft","staircase_motion","","","","",""
"","","","","","html-keyboard-response","91","1918605","0.0-5.0-1.0-0.0-0.0-2.0-0.0-0.0-2.3","null","","null","<p style='font-size: 60px; color: green'>正确!</p>","","","","","","","","","","","","","","","","","","","","","","","","","","","","","","","","","","","","","","","","","","","","","","","",""
"","","","","","html-keyboard-response","92","1919689","0.0-5.0-1.0-0.0-0.0-2.0-0.0-0.0-0.4","null","fixation","null","<p style='font-size: 48px; color: white'>+</p >","","","","","","","","","","","","","","","","","","","","","","","","","","","","","","","","","","","","","","","","","","","","","","","",""
"","","","","","rdk","93","1920846","0.0-5.0-1.0-0.0-0.0-2.0-0.0-0.0-1.4","579","motion_test","arrowright","","true","[""ArrowLeft"",""ArrowRight""]","ArrowRight","3000","true","1","100","0","0.08","0","3","1","-1","2","300","300","[""hsl(0, 50%, 50%)"",""hsl(225, 50%, 50%)""]","[""white""]","0","0","0","circle","black","3","2","2","16.939393939393938","[16,17,17,17,17,17,17,17,17,17,17,17,17,17,17,17,17,17,17,17,17,17,17,17,17,17,16,17,17,17,17,17,17]","33","960","481","false","20","20","black","1","false","1","1","1920","962","ArrowRight","staircase_motion","","","","",""
"","","","","","html-keyboard-response","94","1921938","0.0-5.0-1.0-0.0-0.0-2.0-0.0-0.0-2.4","null","","null","<p style='font-size: 60px; color: green'>正确!</p>","","","","","","","","","","","","","","","","","","","","","","","","","","","","","","","","","","","","","","","","","","","","","","","",""
"","","","","","html-keyboard-response","95","1923023","0.0-5.0-1.0-0.0-0.0-2.0-0.0-0.0-0.5","null","fixation","null","<p style='font-size: 48px; color: white'>+</p >","","","","","","","","","","","","","","","","","","","","","","","","","","","","","","","","","","","","","","","","","","","","","","","",""
"","","","","","rdk","96","1924151","0.0-5.0-1.0-0.0-0.0-2.0-0.0-0.0-1.5","550","motion_test","arrowleft","","true","[""ArrowLeft"",""ArrowRight""]","ArrowLeft","3000","true","1","100","180","0.08","0","3","1","-1","2","300","300","[""hsl(0, 50%, 50%)"",""hsl(225, 50%, 50%)""]","[""white""]","0","0","0","circle","black","3","2","2","16.903225806451612","[16,17,17,17,17,17,16,17,17,17,17,17,17,17,17,17,17,16,17,17,17,17,17,17,17,17,17,17,17,17,17]","31","960","481","false","20","20","black","1","false","1","1","1920","962","ArrowLeft","staircase_motion","","","","",""
"","","","","","html-keyboard-response","97","1925239","0.0-5.0-1.0-0.0-0.0-2.0-0.0-0.0-2.5","null","","null","<p style='font-size: 60px; color: green'>正确!</p>","","","","","","","","","","","","","","","","","","","","","","","","","","","","","","","","","","","","","","","","","","","","","","","",""
"","","","","","html-keyboard-response","98","1926322","0.0-5.0-1.0-0.0-0.0-2.0-0.0-0.0-0.6","null","fixation","null","<p style='font-size: 48px; color: white'>+</p >","","","","","","","","","","","","","","","","","","","","","","","","","","","","","","","","","","","","","","","","","","","","","","","",""
"","","","","","rdk","99","1927526","0.0-5.0-1.0-0.0-0.0-2.0-0.0-0.0-1.6","625","motion_test","arrowright","","false","[""ArrowLeft"",""ArrowRight""]","ArrowLeft","3000","true","1","100","180","0.08","0","3","1","-1","2","300","300","[""hsl(0, 50%, 50%)"",""hsl(225, 50%, 50%)""]","[""white""]","0","0","0","circle","black","3","2","2","16.944444444444443","[16,16,17,17,17,17,17,17,17,17,17,17,17,17,17,17,17,17,17,17,17,17,17,17,17,17,17,17,17,17,17,17,17,17,17,17]","36","960","481","false","20","20","black","1","false","1","1","1920","962","ArrowLeft","staircase_motion","","","","",""
"","","","","","html-keyboard-response","100","1928606","0.0-5.0-1.0-0.0-0.0-2.0-0.0-0.0-2.6","null","","null","<p style='font-size: 60px; color: red'>错误!</p>","","","","","","","","","","","","","","","","","","","","","","","","","","","","","","","","","","","","","","","","","","","","","","","",""
"","","","","","html-keyboard-response","101","1929704","0.0-5.0-1.0-0.0-0.0-2.0-0.0-0.0-0.7","null","fixation","null","<p style='font-size: 48px; color: white'>+</p >","","","","","","","","","","","","","","","","","","","","","","","","","","","","","","","","","","","","","","","","","","","","","","","",""
"","","","","","rdk","102","1932598","0.0-5.0-1.0-0.0-0.0-2.0-0.0-0.0-1.7","2310","motion_test","arrowright","","true","[""ArrowLeft"",""ArrowRight""]","ArrowRight","3000","true","1","100","0","0.08","0","3","1","-1","2","300","300","[""hsl(0, 50%, 50%)"",""hsl(225, 50%, 50%)""]","[""white""]","0","0","0","circle","black","3","2","2","16.934782608695652","[12,17,17,17,17,17,17,17,17,17,17,17,17,17,17,17,17,17,17,17,17,17,17,17,17,17,17,17,17,17,17,17,17,17,17,17,17,17,17,17,17,17,17,17,17,17,17,17,17,16,16,17,17,17,17,17,17,17,17,17,17,17,17,17,17,16,17,17,17,17,17,17,17,17,17,17,17,17,17,17,17,17,17,17,17,17,17,17,17,17,17,17,17,17,17,17,17,17,17,17,17,17,17,16,17,17,17,17,17,17,17,17,17,17,17,17,17,17,17,17,17,17,17,17,17,17,17,17,17,17,17,17,17,17,17,17,17,17]","138","960","481","false","20","20","black","1","false","1","1","1920","962","ArrowRight","staircase_motion","","","","",""
"","","","","","html-keyboard-response","103","1933688","0.0-5.0-1.0-0.0-0.0-2.0-0.0-0.0-2.7","null","","null","<p style='font-size: 60px; color: green'>正确!</p>","","","","","","","","","","","","","","","","","","","","","","","","","","","","","","","","","","","","","","","","","","","","","","","",""
"","","","","","html-keyboard-response","104","1934773","0.0-5.0-1.0-0.0-0.0-2.0-0.0-0.0-0.8","null","fixation","null","<p style='font-size: 48px; color: white'>+</p >","","","","","","","","","","","","","","","","","","","","","","","","","","","","","","","","","","","","","","","","","","","","","","","",""
"","","","","","rdk","105","1937406","0.0-5.0-1.0-0.0-0.0-2.0-0.0-0.0-1.8","2055","motion_test","arrowright","","false","[""ArrowLeft"",""ArrowRight""]","ArrowLeft","3000","true","1","100","180","0.08","0","3","1","-1","2","300","300","[""hsl(0, 50%, 50%)"",""hsl(225, 50%, 50%)""]","[""white""]","0","0","0","circle","black","3","2","2","16.975409836065573","[15,17,17,17,17,17,17,17,17,17,17,17,17,17,17,17,17,17,17,17,17,17,17,17,17,17,17,17,17,17,17,17,17,17,17,17,17,17,17,17,17,17,17,17,17,17,17,17,17,17,17,17,17,17,17,17,17,17,17,17,17,17,17,17,17,17,17,17,17,17,17,17,17,17,17,17,17,17,17,17,17,17,17,17,17,17,17,17,17,17,17,17,17,17,17,17,17,17,17,17,17,17,17,17,17,17,17,16,17,17,17,17,17,17,17,17,17,17,17,17,17,17]","122","960","481","false","20","20","black","1","false","1","1","1920","962","ArrowLeft","staircase_motion","","","","",""
"","","","","","html-keyboard-response","106","1938489","0.0-5.0-1.0-0.0-0.0-2.0-0.0-0.0-2.8","null","","null","<p style='font-size: 60px; color: red'>错误!</p>","","","","","","","","","","","","","","","","","","","","","","","","","","","","","","","","","","","","","","","","","","","","","","","",""
"","","","","","html-keyboard-response","107","1939572","0.0-5.0-1.0-0.0-0.0-2.0-0.0-0.0-0.9","null","fixation","null","<p style='font-size: 48px; color: white'>+</p >","","","","","","","","","","","","","","","","","","","","","","","","","","","","","","","","","","","","","","","","","","","","","","","",""
"","","","","","rdk","108","1943152","0.0-5.0-1.0-0.0-0.0-2.0-0.0-0.0-1.9","-1","motion_test","","","false","[""ArrowLeft"",""ArrowRight""]","ArrowLeft","3000","true","1","100","180","0.08","0","3","1","-1","2","300","300","[""hsl(0, 50%, 50%)"",""hsl(225, 50%, 50%)""]","[""white""]","0","0","0","circle","black","3","2","2","16.916666666666668","[16,17,17,17,17,17,17,17,17,17,17,17,17,17,17,17,17,17,17,17,17,17,17,17,17,16,17,17,17,17,17,17,16,17,16,17,17,17,17,17,17,17,17,17,17,17,17,17,17,17,17,16,17,17,17,17,17,17,17,17,17,17,17,17,17,17,17,17,17,17,17,17,17,17,16,17,16,17,17,17,17,17,17,17,17,17,17,17,17,17,17,17,16,17,16,17,17,17,17,17,17,17,17,17,17,17,17,17,17,17,17,17,17,17,17,17,17,17,17,17,17,17,17,17,17,17,17,17,17,17,17,17,16,17,16,17,17,17,17,17,17,17,17,17,17,17,17,17,17,17,17,17,16,17,17,17,17,16,17,17,17,17,17,17,17,17,17,16,17,17,17,17,16,17,17,17,17,17,17,17]","180","960","481","false","20","20","black","1","false","1","1","1920","962","ArrowLeft","staircase_motion","","","","",""
"","","","","","html-keyboard-response","109","1944239","0.0-5.0-1.0-0.0-0.0-2.0-0.0-0.0-2.9","null","","null","<p style='font-size: 60px; color: yellow'>太慢!</p>","","","","","","","","","","","","","","","","","","","","","","","","","","","","","","","","","","","","","","","","","","","","","","","",""
"","","","","","html-keyboard-response","110","1945323","0.0-5.0-1.0-0.0-0.0-2.0-0.0-0.0-0.10","null","fixation","null","<p style='font-size: 48px; color: white'>+</p >","","","","","","","","","","","","","","","","","","","","","","","","","","","","","","","","","","","","","","","","","","","","","","","",""
"","","","","","rdk","111","1947238","0.0-5.0-1.0-0.0-0.0-2.0-0.0-0.0-1.10","1337","motion_test","arrowright","","true","[""ArrowLeft"",""ArrowRight""]","ArrowRight","3000","true","1","100","0","0.08","0","3","1","-1","2","300","300","[""hsl(0, 50%, 50%)"",""hsl(225, 50%, 50%)""]","[""white""]","0","0","0","circle","black","3","2","2","16.975","[16,17,16,17,17,17,17,17,17,17,17,17,17,17,17,17,17,17,17,17,17,17,17,17,17,17,17,17,17,17,17,17,17,17,17,17,17,17,17,17,17,17,17,17,17,17,17,17,17,17,17,17,17,17,17,17,17,17,17,17,17,17,17,17,17,17,17,17,17,17,17,17,17,17,17,17,17,17,17,17]","80","960","481","false","20","20","black","1","false","1","1","1920","962","ArrowRight","staircase_motion","","","","",""
"","","","","","html-keyboard-response","112","1948322","0.0-5.0-1.0-0.0-0.0-2.0-0.0-0.0-2.10","null","","null","<p style='font-size: 60px; color: green'>正确!</p>","","","","","","","","","","","","","","","","","","","","","","","","","","","","","","","","","","","","","","","","","","","","","","","",""
"","","","","","html-keyboard-response","113","1949406","0.0-5.0-1.0-0.0-0.0-2.0-0.0-0.0-0.11","null","fixation","null","<p style='font-size: 48px; color: white'>+</p >","","","","","","","","","","","","","","","","","","","","","","","","","","","","","","","","","","","","","","","","","","","","","","","",""
"","","","","","rdk","114","1951191","0.0-5.0-1.0-0.0-0.0-2.0-0.0-0.0-1.11","1206","motion_test","arrowright","","true","[""ArrowLeft"",""ArrowRight""]","ArrowRight","3000","true","1","100","0","0.08","0","3","1","-1","2","300","300","[""hsl(0, 50%, 50%)"",""hsl(225, 50%, 50%)""]","[""white""]","0","0","0","circle","black","3","2","2","16.901408450704224","[16,17,17,17,17,17,17,17,16,17,16,17,17,17,17,16,17,17,17,17,17,17,17,17,17,17,17,17,17,17,17,17,17,17,16,17,16,17,17,17,17,17,17,17,16,17,17,17,17,17,17,17,17,17,17,17,17,17,17,17,17,17,17,17,17,17,17,17,17,17,17]","71","960","481","false","20","20","black","1","false","1","1","1920","962","ArrowRight","staircase_motion","","","","",""
"","","","","","html-keyboard-response","115","1952273","0.0-5.0-1.0-0.0-0.0-2.0-0.0-0.0-2.11","null","","null","<p style='font-size: 60px; color: green'>正确!</p>","","","","","","","","","","","","","","","","","","","","","","","","","","","","","","","","","","","","","","","","","","","","","","","",""
"","","","","","html-keyboard-response","116","1954855","0.0-5.0-1.0-0.0-0.0-2.0-0.0-1.0","null","","null","<p style='font-size: 35px; color: white'>您的正确率为： 75% 。平均反应时为：976毫秒。</p>","","","","","","","","","","","","","","","","","","","","","","","","","","","","","","","","","","","","","","","","","","","","","","","",""
"","","","","","html-keyboard-response","117","1955939","0.0-5.0-1.0-0.0-0.0-3.0-0.0-0.0-0.0","null","fixation","null","<p style='font-size: 48px; color: white'>+</p >","","","","","","","","","","","","","","","","","","","","","","","","","","","","","","","","","","","","","","","","","","","","","","","",""
"","","","","","rdk","118","1957454","0.0-5.0-1.0-0.0-0.0-3.0-0.0-0.0-1.0","937","motion_test","arrowleft","","true","[""ArrowLeft"",""ArrowRight""]","ArrowLeft","3000","true","1","100","180","0.03","0","3","1","-1","2","300","300","[""hsl(0, 50%, 50%)"",""hsl(225, 50%, 50%)""]","[""white""]","0","0","0","circle","black","3","2","2","16.946428571428573","[17,16,17,17,17,17,17,17,17,17,17,17,17,17,17,16,17,17,17,17,17,17,17,17,17,17,16,17,17,17,17,17,17,17,17,17,17,17,17,17,17,17,17,17,17,17,17,17,17,17,17,17,17,17,17,17]","56","960","481","false","20","20","black","1","false","1","1","1920","962","ArrowLeft","staircase_motion","","","","",""
"","","","","","html-keyboard-response","119","1958538","0.0-5.0-1.0-0.0-0.0-3.0-0.0-0.0-2.0","null","","null","<p style='font-size: 60px; color: green'>正确!</p>","","","","","","","","","","","","","","","","","","","","","","","","","","","","","","","","","","","","","","","","","","","","","","","",""
"","","","","","html-keyboard-response","120","1959622","0.0-5.0-1.0-0.0-0.0-3.0-0.0-0.0-0.1","null","fixation","null","<p style='font-size: 48px; color: white'>+</p >","","","","","","","","","","","","","","","","","","","","","","","","","","","","","","","","","","","","","","","","","","","","","","","",""
"","","","","","rdk","121","1960878","0.0-5.0-1.0-0.0-0.0-3.0-0.0-0.0-1.1","678","motion_test","arrowright","","true","[""ArrowLeft"",""ArrowRight""]","ArrowRight","3000","true","1","100","0","0.03","0","3","1","-1","2","300","300","[""hsl(0, 50%, 50%)"",""hsl(225, 50%, 50%)""]","[""white""]","0","0","0","circle","black","3","2","2","16.9","[16,17,17,17,17,17,17,17,17,16,17,16,17,17,17,17,17,17,17,17,17,17,17,17,16,17,17,17,17,17,17,17,17,17,17,17,17,17,17,17]","40","960","481","false","20","20","black","1","false","1","1","1920","962","ArrowRight","staircase_motion","","","","",""
"","","","","","html-keyboard-response","122","1961955","0.0-5.0-1.0-0.0-0.0-3.0-0.0-0.0-2.1","null","","null","<p style='font-size: 60px; color: green'>正确!</p>","","","","","","","","","","","","","","","","","","","","","","","","","","","","","","","","","","","","","","","","","","","","","","","",""
"","","","","","html-keyboard-response","123","1963040","0.0-5.0-1.0-0.0-0.0-3.0-0.0-0.0-0.2","null","fixation","null","<p style='font-size: 48px; color: white'>+</p >","","","","","","","","","","","","","","","","","","","","","","","","","","","","","","","","","","","","","","","","","","","","","","","",""
"","","","","","rdk","124","1965054","0.0-5.0-1.0-0.0-0.0-3.0-0.0-0.0-1.2","1436","motion_test","arrowleft","","false","[""ArrowLeft"",""ArrowRight""]","ArrowRight","3000","true","1","100","0","0.03","0","3","1","-1","2","300","300","[""hsl(0, 50%, 50%)"",""hsl(225, 50%, 50%)""]","[""white""]","0","0","0","circle","black","3","2","2","16.976744186046513","[15,17,17,17,17,17,17,17,17,17,17,17,17,17,17,17,17,17,17,17,17,17,17,17,17,17,17,17,17,17,17,17,17,17,17,17,17,17,17,17,17,17,17,17,17,17,17,17,17,17,17,17,17,17,17,17,17,17,17,17,17,17,17,17,17,17,17,17,17,17,17,17,17,17,17,17,17,17,17,17,17,17,17,17,17,17]","86","960","481","false","20","20","black","1","false","1","1","1920","962","ArrowRight","staircase_motion","","","","",""
"","","","","","html-keyboard-response","125","1966139","0.0-5.0-1.0-0.0-0.0-3.0-0.0-0.0-2.2","null","","null","<p style='font-size: 60px; color: red'>错误!</p>","","","","","","","","","","","","","","","","","","","","","","","","","","","","","","","","","","","","","","","","","","","","","","","",""
"","","","","","html-keyboard-response","126","1967223","0.0-5.0-1.0-0.0-0.0-3.0-0.0-0.0-0.3","null","fixation","null","<p style='font-size: 48px; color: white'>+</p >","","","","","","","","","","","","","","","","","","","","","","","","","","","","","","","","","","","","","","","","","","","","","","","",""
"","","","","","rdk","127","1969382","0.0-5.0-1.0-0.0-0.0-3.0-0.0-0.0-1.3","1582","motion_test","arrowright","","false","[""ArrowLeft"",""ArrowRight""]","ArrowLeft","3000","true","1","100","180","0.03","0","3","1","-1","2","300","300","[""hsl(0, 50%, 50%)"",""hsl(225, 50%, 50%)""]","[""white""]","0","0","0","circle","black","3","2","2","16.978494623655912","[16,17,17,17,17,17,17,17,17,17,17,17,17,17,17,17,17,17,17,17,17,17,17,17,17,17,17,17,17,17,17,17,17,17,17,17,17,17,17,17,17,17,17,17,17,17,17,17,17,17,17,17,17,17,17,16,17,17,17,17,17,17,17,17,17,17,17,17,17,17,17,17,17,17,17,17,17,17,17,17,17,17,17,17,17,17,17,17,17,17,17,17,17]","93","960","481","false","20","20","black","1","false","1","1","1920","962","ArrowLeft","staircase_motion","","","","",""
"","","","","","html-keyboard-response","128","1970473","0.0-5.0-1.0-0.0-0.0-3.0-0.0-0.0-2.3","null","","null","<p style='font-size: 60px; color: red'>错误!</p>","","","","","","","","","","","","","","","","","","","","","","","","","","","","","","","","","","","","","","","","","","","","","","","",""
"","","","","","html-keyboard-response","129","1971556","0.0-5.0-1.0-0.0-0.0-3.0-0.0-0.0-0.4","null","fixation","null","<p style='font-size: 48px; color: white'>+</p >","","","","","","","","","","","","","","","","","","","","","","","","","","","","","","","","","","","","","","","","","","","","","","","",""
"","","","","","rdk","130","1974678","0.0-5.0-1.0-0.0-0.0-3.0-0.0-0.0-1.4","2543","motion_test","arrowright","","false","[""ArrowLeft"",""ArrowRight""]","ArrowLeft","3000","true","1","100","180","0.03","0","3","1","-1","2","300","300","[""hsl(0, 50%, 50%)"",""hsl(225, 50%, 50%)""]","[""white""]","0","0","0","circle","black","3","2","2","16.95394736842105","[14,17,17,17,17,17,17,17,17,17,17,17,17,17,17,17,17,17,17,17,17,17,17,17,17,17,17,17,17,17,17,17,17,17,17,17,17,17,17,17,17,17,17,17,17,17,17,17,16,17,17,17,17,17,17,17,17,17,17,17,17,17,17,17,17,17,17,17,17,17,17,17,17,17,17,17,17,17,17,17,17,17,17,17,17,17,17,17,17,17,17,17,16,17,17,17,17,17,17,17,17,17,17,17,17,17,17,17,17,17,17,17,17,16,17,17,17,17,17,17,17,17,17,17,17,17,17,17,17,17,17,17,17,17,17,17,17,17,17,17,17,17,17,17,17,17,17,17,17,17,17,16]","152","960","481","false","20","20","black","1","false","1","1","1920","962","ArrowLeft","staircase_motion","","","","",""
"","","","","","html-keyboard-response","131","1975755","0.0-5.0-1.0-0.0-0.0-3.0-0.0-0.0-2.4","null","","null","<p style='font-size: 60px; color: red'>错误!</p>","","","","","","","","","","","","","","","","","","","","","","","","","","","","","","","","","","","","","","","","","","","","","","","",""
"","","","","","html-keyboard-response","132","1976839","0.0-5.0-1.0-0.0-0.0-3.0-0.0-0.0-0.5","null","fixation","null","<p style='font-size: 48px; color: white'>+</p >","","","","","","","","","","","","","","","","","","","","","","","","","","","","","","","","","","","","","","","","","","","","","","","",""
"","","","","","rdk","133","1980435","0.0-5.0-1.0-0.0-0.0-3.0-0.0-0.0-1.5","-1","motion_test","","","false","[""ArrowLeft"",""ArrowRight""]","ArrowRight","3000","true","1","100","0","0.03","0","3","1","-1","2","300","300","[""hsl(0, 50%, 50%)"",""hsl(225, 50%, 50%)""]","[""white""]","0","0","0","circle","black","3","2","2","16.97222222222222","[16,17,17,17,17,17,17,17,17,17,17,17,17,17,17,17,17,17,16,17,17,17,17,17,17,17,17,17,17,17,17,17,17,17,17,17,17,17,17,17,17,17,17,17,17,17,17,17,17,16,17,17,17,17,17,17,17,17,17,17,17,17,17,17,17,17,17,17,17,17,17,17,17,17,17,17,17,17,17,17,17,17,17,17,17,17,17,17,17,17,17,17,17,17,17,17,17,17,17,17,17,17,17,17,17,17,17,17,17,17,17,17,17,17,17,17,17,17,17,17,17,17,17,17,17,17,17,17,17,17,17,17,17,17,17,17,17,17,17,17,17,17,17,17,17,17,17,17,17,17,17,17,17,17,17,17,17,17,17,17,17,17,17,16,17,17,17,17,16,17,17,17,17,17,17,17,17,17,17,17]","180","960","481","false","20","20","black","1","false","1","1","1920","962","ArrowRight","staircase_motion","","","","",""
"","","","","","html-keyboard-response","134","1981521","0.0-5.0-1.0-0.0-0.0-3.0-0.0-0.0-2.5","null","","null","<p style='font-size: 60px; color: yellow'>太慢!</p>","","","","","","","","","","","","","","","","","","","","","","","","","","","","","","","","","","","","","","","","","","","","","","","",""
"","","","","","html-keyboard-response","135","1982606","0.0-5.0-1.0-0.0-0.0-3.0-0.0-0.0-0.6","null","fixation","null","<p style='font-size: 48px; color: white'>+</p >","","","","","","","","","","","","","","","","","","","","","","","","","","","","","","","","","","","","","","","","","","","","","","","",""
"","","","","","rdk","136","1984662","0.0-5.0-1.0-0.0-0.0-3.0-0.0-0.0-1.6","1479","motion_test","arrowleft","","true","[""ArrowLeft"",""ArrowRight""]","ArrowLeft","3000","true","1","100","180","0.03","0","3","1","-1","2","300","300","[""hsl(0, 50%, 50%)"",""hsl(225, 50%, 50%)""]","[""white""]","0","0","0","circle","black","3","2","2","16.954545454545453","[18,16,16,17,16,17,17,17,17,17,17,17,17,17,17,17,17,17,17,17,17,17,17,17,17,17,17,17,17,17,17,17,17,16,17,17,17,17,17,17,17,17,17,17,17,16,17,17,17,17,17,17,17,17,17,17,17,17,17,17,17,17,17,17,17,17,17,17,17,17,17,17,17,17,17,17,17,17,17,17,17,17,17,17,17,17,17,17]","88","960","481","false","20","20","black","1","false","1","1","1920","962","ArrowLeft","staircase_motion","","","","",""
"","","","","","html-keyboard-response","137","1985755","0.0-5.0-1.0-0.0-0.0-3.0-0.0-0.0-2.6","null","","null","<p style='font-size: 60px; color: green'>正确!</p>","","","","","","","","","","","","","","","","","","","","","","","","","","","","","","","","","","","","","","","","","","","","","","","",""
"","","","","","html-keyboard-response","138","1986839","0.0-5.0-1.0-0.0-0.0-3.0-0.0-0.0-0.7","null","fixation","null","<p style='font-size: 48px; color: white'>+</p >","","","","","","","","","","","","","","","","","","","","","","","","","","","","","","","","","","","","","","","","","","","","","","","",""
"","","","","","rdk","139","1990118","0.0-5.0-1.0-0.0-0.0-3.0-0.0-0.0-1.7","2700","motion_test","arrowleft","","false","[""ArrowLeft"",""ArrowRight""]","ArrowRight","3000","true","1","100","0","0.03","0","3","1","-1","2","300","300","[""hsl(0, 50%, 50%)"",""hsl(225, 50%, 50%)""]","[""white""]","0","0","0","circle","black","3","2","2","16.969135802469136","[16,17,17,17,17,17,17,17,17,17,17,17,17,17,17,16,17,17,17,17,17,17,17,17,17,17,17,17,17,17,17,17,17,17,17,17,17,17,17,17,17,17,17,17,17,17,17,17,17,17,17,17,17,17,17,17,17,17,17,17,17,17,17,17,17,17,17,17,17,17,17,17,17,17,17,17,17,17,17,17,17,17,17,17,17,17,17,17,17,17,17,17,17,17,17,17,17,17,17,17,17,17,17,17,17,17,17,17,17,17,17,17,17,17,17,17,17,17,17,17,17,17,17,17,17,17,17,17,17,17,17,17,17,17,17,17,17,17,17,16,17,17,17,17,17,17,17,17,17,17,17,17,17,17,17,17,17,16,17,17,17,16]","162","960","481","false","20","20","black","1","false","1","1","1920","962","ArrowRight","staircase_motion","","","","",""
"","","","","","html-keyboard-response","140","1991206","0.0-5.0-1.0-0.0-0.0-3.0-0.0-0.0-2.7","null","","null","<p style='font-size: 60px; color: red'>错误!</p>","","","","","","","","","","","","","","","","","","","","","","","","","","","","","","","","","","","","","","","","","","","","","","","",""
"","","","","","html-keyboard-response","141","1992290","0.0-5.0-1.0-0.0-0.0-3.0-0.0-0.0-0.8","null","fixation","null","<p style='font-size: 48px; color: white'>+</p >","","","","","","","","","","","","","","","","","","","","","","","","","","","","","","","","","","","","","","","","","","","","","","","",""
"","","","","","rdk","142","1994358","0.0-5.0-1.0-0.0-0.0-3.0-0.0-0.0-1.8","1484","motion_test","arrowright","","true","[""ArrowLeft"",""ArrowRight""]","ArrowRight","3000","true","1","100","0","0.03","0","3","1","-1","2","300","300","[""hsl(0, 50%, 50%)"",""hsl(225, 50%, 50%)""]","[""white""]","0","0","0","circle","black","3","2","2","16.89887640449438","[8,17,17,17,17,17,17,17,17,17,17,17,17,17,17,17,17,17,17,17,17,17,17,17,17,17,17,17,17,17,17,17,17,17,17,17,17,17,17,17,17,17,17,17,17,17,17,17,17,17,17,17,17,17,17,17,17,17,17,17,17,17,17,17,17,17,17,17,17,17,17,17,17,17,17,17,17,17,17,17,17,17,17,17,17,17,17,17,17]","89","960","481","false","20","20","black","1","false","1","1","1920","962","ArrowRight","staircase_motion","","","","",""
"","","","","","html-keyboard-response","143","1995438","0.0-5.0-1.0-0.0-0.0-3.0-0.0-0.0-2.8","null","","null","<p style='font-size: 60px; color: green'>正确!</p>","","","","","","","","","","","","","","","","","","","","","","","","","","","","","","","","","","","","","","","","","","","","","","","",""
"","","","","","html-keyboard-response","144","1996522","0.0-5.0-1.0-0.0-0.0-3.0-0.0-0.0-0.9","null","fixation","null","<p style='font-size: 48px; color: white'>+</p >","","","","","","","","","","","","","","","","","","","","","","","","","","","","","","","","","","","","","","","","","","","","","","","",""
"","","","","","rdk","145","1999166","0.0-5.0-1.0-0.0-0.0-3.0-0.0-0.0-1.9","2065","motion_test","arrowright","","false","[""ArrowLeft"",""ArrowRight""]","ArrowLeft","3000","true","1","100","180","0.03","0","3","1","-1","2","300","300","[""hsl(0, 50%, 50%)"",""hsl(225, 50%, 50%)""]","[""white""]","0","0","0","circle","black","3","2","2","16.983606557377048","[16,17,17,17,17,17,17,17,17,17,17,17,17,17,17,17,17,17,17,17,17,17,17,17,17,17,17,17,17,17,17,17,17,17,17,17,17,17,17,17,17,17,17,17,17,17,17,17,17,17,17,17,17,17,17,17,17,17,17,17,17,17,17,17,17,17,17,17,17,17,17,17,17,17,17,17,17,17,17,17,17,17,17,17,17,17,17,17,17,17,17,17,17,17,17,17,17,17,17,17,17,17,17,17,17,17,17,17,17,17,17,17,17,17,17,16,17,17,17,17,17,17]","122","960","481","false","20","20","black","1","false","1","1","1920","962","ArrowLeft","staircase_motion","","","","",""
"","","","","","html-keyboard-response","146","2000256","0.0-5.0-1.0-0.0-0.0-3.0-0.0-0.0-2.9","null","","null","<p style='font-size: 60px; color: red'>错误!</p>","","","","","","","","","","","","","","","","","","","","","","","","","","","","","","","","","","","","","","","","","","","","","","","",""
"","","","","","html-keyboard-response","147","2001340","0.0-5.0-1.0-0.0-0.0-3.0-0.0-0.0-0.10","null","fixation","null","<p style='font-size: 48px; color: white'>+</p >","","","","","","","","","","","","","","","","","","","","","","","","","","","","","","","","","","","","","","","","","","","","","","","",""
"","","","","","rdk","148","2004919","0.0-5.0-1.0-0.0-0.0-3.0-0.0-0.0-1.10","-1","motion_test","","","false","[""ArrowLeft"",""ArrowRight""]","ArrowRight","3000","true","1","100","0","0.03","0","3","1","-1","2","300","300","[""hsl(0, 50%, 50%)"",""hsl(225, 50%, 50%)""]","[""white""]","0","0","0","circle","black","3","2","2","16.93888888888889","[18,16,17,17,16,17,16,17,17,17,17,17,17,17,17,17,17,17,17,17,17,17,17,17,17,17,17,17,17,17,17,17,17,17,17,17,17,17,17,17,17,17,17,17,17,17,17,17,17,17,17,16,17,17,17,17,17,17,17,17,17,16,17,17,17,16,17,17,17,17,17,17,17,17,17,17,17,17,17,17,17,17,17,17,17,17,17,17,17,17,17,17,17,17,17,17,17,17,17,17,16,17,17,17,17,17,17,17,17,17,17,16,17,16,17,17,17,17,17,17,17,17,17,17,17,17,17,17,17,17,17,17,17,17,17,17,17,17,17,17,17,17,17,17,17,17,17,17,17,17,17,17,17,17,17,17,17,17,17,16,17,17,17,17,17,17,17,17,17,17,17,16,17,16,17,17,17,17,17,17]","180","960","481","false","20","20","black","1","false","1","1","1920","962","ArrowRight","staircase_motion","","","","",""
"","","","","","html-keyboard-response","149","2006004","0.0-5.0-1.0-0.0-0.0-3.0-0.0-0.0-2.10","null","","null","<p style='font-size: 60px; color: yellow'>太慢!</p>","","","","","","","","","","","","","","","","","","","","","","","","","","","","","","","","","","","","","","","","","","","","","","","",""
"","","","","","html-keyboard-response","150","2007089","0.0-5.0-1.0-0.0-0.0-3.0-0.0-0.0-0.11","null","fixation","null","<p style='font-size: 48px; color: white'>+</p >","","","","","","","","","","","","","","","","","","","","","","","","","","","","","","","","","","","","","","","","","","","","","","","",""
"","","","","","rdk","151","2008958","0.0-5.0-1.0-0.0-0.0-3.0-0.0-0.0-1.11","1290","motion_test","arrowleft","","true","[""ArrowLeft"",""ArrowRight""]","ArrowLeft","3000","true","1","100","180","0.03","0","3","1","-1","2","300","300","[""hsl(0, 50%, 50%)"",""hsl(225, 50%, 50%)""]","[""white""]","0","0","0","circle","black","3","2","2","16.974025974025974","[16,17,17,17,17,17,17,17,17,17,17,17,17,17,17,17,17,17,17,17,17,17,17,17,17,17,17,17,17,17,17,17,17,17,17,17,17,17,17,17,17,17,17,17,17,17,17,17,17,17,17,16,17,17,17,17,17,17,17,17,17,17,17,17,17,17,17,17,17,17,17,17,17,17,17,17,17]","77","960","481","false","20","20","black","1","false","1","1","1920","962","ArrowLeft","staircase_motion","","","","",""
"","","","","","html-keyboard-response","152","2010038","0.0-5.0-1.0-0.0-0.0-3.0-0.0-0.0-2.11","null","","null","<p style='font-size: 60px; color: green'>正确!</p>","","","","","","","","","","","","","","","","","","","","","","","","","","","","","","","","","","","","","","","","","","","","","","","",""
"","","","","","html-keyboard-response","153","2012622","0.0-5.0-1.0-0.0-0.0-3.0-0.0-1.0","null","","null","<p style='font-size: 35px; color: white'>您的正确率为： 42% 。平均反应时为：1349毫秒。</p>","","","","","","","","","","","","","","","","","","","","","","","","","","","","","","","","","","","","","","","","","","","","","","","",""
"","","","","","html-keyboard-response","154","2013705","0.0-5.0-1.0-0.0-0.0-4.0-0.0-0.0-0.0","null","fixation","null","<p style='font-size: 48px; color: white'>+</p >","","","","","","","","","","","","","","","","","","","","","","","","","","","","","","","","","","","","","","","","","","","","","","","",""
"","","","","","rdk","155","2015270","0.0-5.0-1.0-0.0-0.0-4.0-0.0-0.0-1.0","986","motion_test","arrowleft","","true","[""ArrowLeft"",""ArrowRight""]","ArrowLeft","3000","true","1","100","180","0.08","0","3","1","-1","2","300","300","[""hsl(0, 50%, 50%)"",""hsl(225, 50%, 50%)""]","[""white""]","0","0","0","circle","black","3","2","2","16.96551724137931","[15,17,17,17,17,17,17,17,17,17,17,17,17,17,17,17,17,17,17,17,17,17,17,17,17,17,17,17,17,17,17,17,17,17,17,17,17,17,17,17,17,17,17,17,17,17,17,17,17,17,17,17,17,17,17,17,17,17]","58","960","481","false","20","20","black","1","false","1","1","1920","962","ArrowLeft","staircase_motion","","","","",""
"","","","","","html-keyboard-response","156","2016355","0.0-5.0-1.0-0.0-0.0-4.0-0.0-0.0-2.0","null","","null","<p style='font-size: 60px; color: green'>正确!</p>","","","","","","","","","","","","","","","","","","","","","","","","","","","","","","","","","","","","","","","","","","","","","","","",""
"","","","","","html-keyboard-response","157","2017439","0.0-5.0-1.0-0.0-0.0-4.0-0.0-0.0-0.1","null","fixation","null","<p style='font-size: 48px; color: white'>+</p >","","","","","","","","","","","","","","","","","","","","","","","","","","","","","","","","","","","","","","","","","","","","","","","",""
"","","","","","rdk","158","2018974","0.0-5.0-1.0-0.0-0.0-4.0-0.0-0.0-1.1","957","motion_test","arrowright","","true","[""ArrowLeft"",""ArrowRight""]","ArrowRight","3000","true","1","100","0","0.08","0","3","1","-1","2","300","300","[""hsl(0, 50%, 50%)"",""hsl(225, 50%, 50%)""]","[""white""]","0","0","0","circle","black","3","2","2","16.964285714285715","[16,17,17,17,17,17,17,17,17,17,17,17,17,17,17,17,17,17,17,17,17,17,17,17,17,17,17,17,17,17,17,17,17,17,17,17,17,17,17,17,17,17,17,16,17,17,17,17,17,17,17,17,17,17,17,17]","56","960","481","false","20","20","black","1","false","1","1","1920","962","ArrowRight","staircase_motion","","","","",""
"","","","","","html-keyboard-response","159","2020054","0.0-5.0-1.0-0.0-0.0-4.0-0.0-0.0-2.1","null","","null","<p style='font-size: 60px; color: green'>正确!</p>","","","","","","","","","","","","","","","","","","","","","","","","","","","","","","","","","","","","","","","","","","","","","","","",""
"","","","","","html-keyboard-response","160","2021140","0.0-5.0-1.0-0.0-0.0-4.0-0.0-0.0-0.2","null","fixation","null","<p style='font-size: 48px; color: white'>+</p >","","","","","","","","","","","","","","","","","","","","","","","","","","","","","","","","","","","","","","","","","","","","","","","",""
"","","","","","rdk","161","2024119","0.0-5.0-1.0-0.0-0.0-4.0-0.0-0.0-1.2","2402","motion_test","arrowleft","","true","[""ArrowLeft"",""ArrowRight""]","ArrowLeft","3000","true","1","100","180","0.08","0","3","1","-1","2","300","300","[""hsl(0, 50%, 50%)"",""hsl(225, 50%, 50%)""]","[""white""]","0","0","0","circle","black","3","2","2","16.958333333333332","[18,16,17,17,17,17,17,17,17,17,17,17,17,17,17,17,17,16,16,17,16,17,17,17,17,17,17,17,17,17,17,17,17,17,17,17,17,17,17,17,17,17,17,17,17,17,17,17,17,17,17,16,17,17,17,17,17,17,17,17,17,17,17,16,17,17,17,17,17,17,17,17,17,17,17,17,17,17,17,17,17,17,17,17,17,17,17,17,17,17,17,17,17,17,17,17,17,17,17,17,17,17,17,17,17,17,17,17,17,17,17,17,17,17,17,17,17,17,17,17,17,17,17,17,17,17,17,17,17,17,17,17,17,17,17,17,17,17,17,17,17,17,17,16]","144","960","481","false","20","20","black","1","false","1","1","1920","962","ArrowLeft","staircase_motion","","","","",""
"","","","","","html-keyboard-response","162","2025205","0.0-5.0-1.0-0.0-0.0-4.0-0.0-0.0-2.2","null","","null","<p style='font-size: 60px; color: green'>正确!</p>","","","","","","","","","","","","","","","","","","","","","","","","","","","","","","","","","","","","","","","","","","","","","","","",""
"","","","","","html-keyboard-response","163","2026290","0.0-5.0-1.0-0.0-0.0-4.0-0.0-0.0-0.3","null","fixation","null","<p style='font-size: 48px; color: white'>+</p >","","","","","","","","","","","","","","","","","","","","","","","","","","","","","","","","","","","","","","","","","","","","","","","",""
"","","","","","rdk","164","2028838","0.0-5.0-1.0-0.0-0.0-4.0-0.0-0.0-1.3","1970","motion_test","arrowleft","","false","[""ArrowLeft"",""ArrowRight""]","ArrowRight","3000","true","1","100","0","0.08","0","3","1","-1","2","300","300","[""hsl(0, 50%, 50%)"",""hsl(225, 50%, 50%)""]","[""white""]","0","0","0","circle","black","3","2","2","16.966101694915253","[16,17,17,17,17,16,16,17,17,17,17,17,17,17,17,17,17,17,17,17,17,17,17,17,17,17,17,17,17,17,17,17,17,17,17,17,17,17,17,17,17,17,17,17,17,17,17,17,17,17,17,17,17,17,16,17,17,17,17,17,17,17,17,17,17,17,17,17,17,17,17,17,17,17,17,17,17,17,17,17,17,17,17,17,17,17,17,17,17,17,17,17,17,17,17,17,17,17,17,17,17,17,17,17,17,17,17,17,17,17,17,17,17,17,17,17,17,17]","118","960","481","false","20","20","black","1","false","1","1","1920","962","ArrowRight","staircase_motion","","","","",""
"","","","","","html-keyboard-response","165","2029922","0.0-5.0-1.0-0.0-0.0-4.0-0.0-0.0-2.3","null","","null","<p style='font-size: 60px; color: red'>错误!</p>","","","","","","","","","","","","","","","","","","","","","","","","","","","","","","","","","","","","","","","","","","","","","","","",""
"","","","","","html-keyboard-response","166","2031005","0.0-5.0-1.0-0.0-0.0-4.0-0.0-0.0-0.4","null","fixation","null","<p style='font-size: 48px; color: white'>+</p >","","","","","","","","","","","","","","","","","","","","","","","","","","","","","","","","","","","","","","","","","","","","","","","",""
"","","","","","rdk","167","2033350","0.0-5.0-1.0-0.0-0.0-4.0-0.0-0.0-1.4","1766","motion_test","arrowleft","","true","[""ArrowLeft"",""ArrowRight""]","ArrowLeft","3000","true","1","100","180","0.08","0","3","1","-1","2","300","300","[""hsl(0, 50%, 50%)"",""hsl(225, 50%, 50%)""]","[""white""]","0","0","0","circle","black","3","2","2","16.96153846153846","[15,17,17,17,17,17,17,17,17,17,17,17,17,17,17,17,17,17,17,17,17,17,17,17,17,17,17,17,17,17,17,17,17,17,17,17,17,17,17,17,17,17,17,17,17,17,17,17,17,17,17,17,17,17,17,17,17,17,17,17,17,17,17,17,17,17,17,17,17,17,17,17,17,17,17,17,17,17,17,17,17,17,17,17,17,17,17,17,16,16,17,17,17,17,17,17,17,17,17,17,17,17,17,17]","104","960","481","false","20","20","black","1","false","1","1","1920","962","ArrowLeft","staircase_motion","","","","",""
"","","","","","html-keyboard-response","168","2034440","0.0-5.0-1.0-0.0-0.0-4.0-0.0-0.0-2.4","null","","null","<p style='font-size: 60px; color: green'>正确!</p>","","","","","","","","","","","","","","","","","","","","","","","","","","","","","","","","","","","","","","","","","","","","","","","",""
"","","","","","html-keyboard-response","169","2035522","0.0-5.0-1.0-0.0-0.0-4.0-0.0-0.0-0.5","null","fixation","null","<p style='font-size: 48px; color: white'>+</p >","","","","","","","","","","","","","","","","","","","","","","","","","","","","","","","","","","","","","","","","","","","","","","","",""
"","","","","","rdk","170","2037630","0.0-5.0-1.0-0.0-0.0-4.0-0.0-0.0-1.5","1530","motion_test","arrowright","","true","[""ArrowLeft"",""ArrowRight""]","ArrowRight","3000","true","1","100","0","0.08","0","3","1","-1","2","300","300","[""hsl(0, 50%, 50%)"",""hsl(225, 50%, 50%)""]","[""white""]","0","0","0","circle","black","3","2","2","16.977777777777778","[16,17,17,17,17,17,17,17,17,17,17,17,17,17,17,17,17,17,17,17,17,17,17,17,17,17,17,17,17,17,17,17,17,17,17,17,17,16,17,17,17,17,17,17,17,17,17,17,17,17,17,17,17,17,17,17,17,17,17,17,17,17,17,17,17,17,17,17,17,17,17,17,17,17,17,17,17,17,17,17,17,17,17,17,17,17,17,17,17,17]","90","960","481","false","20","20","black","1","false","1","1","1920","962","ArrowRight","staircase_motion","","","","",""
"","","","","","html-keyboard-response","171","2038721","0.0-5.0-1.0-0.0-0.0-4.0-0.0-0.0-2.5","null","","null","<p style='font-size: 60px; color: green'>正确!</p>","","","","","","","","","","","","","","","","","","","","","","","","","","","","","","","","","","","","","","","","","","","","","","","",""
"","","","","","html-keyboard-response","172","2039805","0.0-5.0-1.0-0.0-0.0-4.0-0.0-0.0-0.6","null","fixation","null","<p style='font-size: 48px; color: white'>+</p >","","","","","","","","","","","","","","","","","","","","","","","","","","","","","","","","","","","","","","","","","","","","","","","",""
"","","","","","rdk","173","2041558","0.0-5.0-1.0-0.0-0.0-4.0-0.0-0.0-1.6","1175","motion_test","arrowright","","true","[""ArrowLeft"",""ArrowRight""]","ArrowRight","3000","true","1","100","0","0.08","0","3","1","-1","2","300","300","[""hsl(0, 50%, 50%)"",""hsl(225, 50%, 50%)""]","[""white""]","0","0","0","circle","black","3","2","2","16.985714285714284","[18,16,17,17,17,17,17,17,17,17,17,17,17,17,17,17,17,17,17,17,17,17,17,16,17,17,17,17,17,17,17,17,17,17,17,17,17,17,17,17,17,17,17,17,17,17,17,17,17,17,17,17,17,17,17,17,17,17,17,17,17,17,17,17,17,17,17,17,17,17]","70","960","481","false","20","20","black","1","false","1","1","1920","962","ArrowRight","staircase_motion","","","","",""
"","","","","","html-keyboard-response","174","2042638","0.0-5.0-1.0-0.0-0.0-4.0-0.0-0.0-2.6","null","","null","<p style='font-size: 60px; color: green'>正确!</p>","","","","","","","","","","","","","","","","","","","","","","","","","","","","","","","","","","","","","","","","","","","","","","","",""
"","","","","","html-keyboard-response","175","2043723","0.0-5.0-1.0-0.0-0.0-4.0-0.0-0.0-0.7","null","fixation","null","<p style='font-size: 48px; color: white'>+</p >","","","","","","","","","","","","","","","","","","","","","","","","","","","","","","","","","","","","","","","","","","","","","","","",""
"","","","","","rdk","176","2046351","0.0-5.0-1.0-0.0-0.0-4.0-0.0-0.0-1.7","2050","motion_test","arrowleft","","true","[""ArrowLeft"",""ArrowRight""]","ArrowLeft","3000","true","1","100","180","0.08","0","3","1","-1","2","300","300","[""hsl(0, 50%, 50%)"",""hsl(225, 50%, 50%)""]","[""white""]","0","0","0","circle","black","3","2","2","16.950819672131146","[17,16,17,17,17,17,17,17,17,17,17,17,17,17,17,17,16,17,17,17,17,17,17,17,17,17,17,17,17,17,17,17,17,17,17,17,17,17,17,17,17,17,17,17,17,17,17,17,17,17,17,16,17,17,17,17,17,17,17,17,17,17,17,17,17,17,17,17,17,17,17,17,17,17,17,17,17,17,17,17,17,17,17,17,17,17,17,17,17,17,17,17,17,17,17,17,17,17,17,17,17,17,16,17,16,17,17,17,16,17,17,17,17,17,17,17,17,17,17,17,17,17]","122","960","481","false","20","20","black","1","false","1","1","1920","962","ArrowLeft","staircase_motion","","","","",""
"","","","","","html-keyboard-response","177","2047439","0.0-5.0-1.0-0.0-0.0-4.0-0.0-0.0-2.7","null","","null","<p style='font-size: 60px; color: green'>正确!</p>","","","","","","","","","","","","","","","","","","","","","","","","","","","","","","","","","","","","","","","","","","","","","","","",""
"","","","","","html-keyboard-response","178","2048527","0.0-5.0-1.0-0.0-0.0-4.0-0.0-0.0-0.8","null","fixation","null","<p style='font-size: 48px; color: white'>+</p >","","","","","","","","","","","","","","","","","","","","","","","","","","","","","","","","","","","","","","","","","","","","","","","",""
"","","","","","rdk","179","2052119","0.0-5.0-1.0-0.0-0.0-4.0-0.0-0.0-1.8","-1","motion_test","","","false","[""ArrowLeft"",""ArrowRight""]","ArrowLeft","3000","true","1","100","180","0.08","0","3","1","-1","2","300","300","[""hsl(0, 50%, 50%)"",""hsl(225, 50%, 50%)""]","[""white""]","0","0","0","circle","black","3","2","2","16.966666666666665","[15,17,17,17,17,17,17,17,17,17,17,17,17,17,17,17,17,17,17,17,17,17,17,17,17,17,17,17,17,17,17,17,17,17,17,17,17,17,17,17,17,17,17,17,17,17,17,17,17,17,17,17,17,17,17,17,17,17,17,17,17,17,17,16,17,17,17,17,17,17,17,17,17,17,17,17,17,17,17,17,17,17,17,17,17,17,17,17,17,17,17,17,17,17,17,17,17,17,17,17,17,17,17,17,17,17,17,17,17,17,17,17,17,17,17,17,17,17,17,17,17,17,17,17,16,17,17,17,17,17,17,17,17,17,17,17,17,17,17,17,17,17,17,17,16,16,17,17,17,17,17,17,17,17,17,17,17,17,17,17,17,17,17,17,17,17,17,17,17,17,17,17,17,17,17,17,17,17,17,17]","180","960","481","false","20","20","black","1","false","1","1","1920","962","ArrowLeft","staircase_motion","","","","",""
"","","","","","html-keyboard-response","180","2053205","0.0-5.0-1.0-0.0-0.0-4.0-0.0-0.0-2.8","null","","null","<p style='font-size: 60px; color: yellow'>太慢!</p>","","","","","","","","","","","","","","","","","","","","","","","","","","","","","","","","","","","","","","","","","","","","","","","",""
"","","","","","html-keyboard-response","181","2054289","0.0-5.0-1.0-0.0-0.0-4.0-0.0-0.0-0.9","null","fixation","null","<p style='font-size: 48px; color: white'>+</p >","","","","","","","","","","","","","","","","","","","","","","","","","","","","","","","","","","","","","","","","","","","","","","","",""
"","","","","","rdk","182","2057158","0.0-5.0-1.0-0.0-0.0-4.0-0.0-0.0-1.9","2291","motion_test","arrowright","","true","[""ArrowLeft"",""ArrowRight""]","ArrowRight","3000","true","1","100","0","0.08","0","3","1","-1","2","300","300","[""hsl(0, 50%, 50%)"",""hsl(225, 50%, 50%)""]","[""white""]","0","0","0","circle","black","3","2","2","16.977941176470587","[16,17,17,17,17,17,17,17,17,17,17,17,17,17,17,17,16,17,17,17,17,17,17,17,17,17,16,17,17,17,17,17,17,17,17,17,17,17,17,17,17,17,17,17,17,17,17,17,17,17,17,17,17,17,17,17,17,17,17,17,17,17,17,17,17,17,17,17,17,17,17,17,17,17,17,17,17,17,17,17,17,17,17,17,17,17,17,17,17,17,17,17,17,17,17,17,17,17,17,17,17,17,17,17,17,17,17,17,17,17,17,17,17,17,17,17,17,17,17,17,17,17,17,17,17,17,17,17,17,17,17,17,17,17,17,17]","136","960","481","false","20","20","black","1","false","1","1","1920","962","ArrowRight","staircase_motion","","","","",""
"","","","","","html-keyboard-response","183","2058238","0.0-5.0-1.0-0.0-0.0-4.0-0.0-0.0-2.9","null","","null","<p style='font-size: 60px; color: green'>正确!</p>","","","","","","","","","","","","","","","","","","","","","","","","","","","","","","","","","","","","","","","","","","","","","","","",""
"","","","","","html-keyboard-response","184","2059321","0.0-5.0-1.0-0.0-0.0-4.0-0.0-0.0-0.10","null","fixation","null","<p style='font-size: 48px; color: white'>+</p >","","","","","","","","","","","","","","","","","","","","","","","","","","","","","","","","","","","","","","","","","","","","","","","",""
"","","","","","rdk","185","2061078","0.0-5.0-1.0-0.0-0.0-4.0-0.0-0.0-1.10","1170","motion_test","arrowleft","","true","[""ArrowLeft"",""ArrowRight""]","ArrowLeft","3000","true","1","100","180","0.08","0","3","1","-1","2","300","300","[""hsl(0, 50%, 50%)"",""hsl(225, 50%, 50%)""]","[""white""]","0","0","0","circle","black","3","2","2","16.885714285714286","[9,17,17,17,17,17,17,17,17,17,17,17,17,17,17,17,17,17,17,17,17,17,17,17,17,17,17,17,17,17,17,17,17,17,17,17,17,17,17,17,17,17,17,17,17,17,17,17,17,17,17,17,17,17,17,17,17,17,17,17,17,17,17,17,17,17,17,17,17,17]","70","960","481","false","20","20","black","1","false","1","1","1920","962","ArrowLeft","staircase_motion","","","","",""
"","","","","","html-keyboard-response","186","2062173","0.0-5.0-1.0-0.0-0.0-4.0-0.0-0.0-2.10","null","","null","<p style='font-size: 60px; color: green'>正确!</p>","","","","","","","","","","","","","","","","","","","","","","","","","","","","","","","","","","","","","","","","","","","","","","","",""
"","","","","","html-keyboard-response","187","2063256","0.0-5.0-1.0-0.0-0.0-4.0-0.0-0.0-0.11","null","fixation","null","<p style='font-size: 48px; color: white'>+</p >","","","","","","","","","","","","","","","","","","","","","","","","","","","","","","","","","","","","","","","","","","","","","","","",""
"","","","","","rdk","188","2065198","0.0-5.0-1.0-0.0-0.0-4.0-0.0-0.0-1.11","1365","motion_test","arrowright","","true","[""ArrowLeft"",""ArrowRight""]","ArrowRight","3000","true","1","100","0","0.08","0","3","1","-1","2","300","300","[""hsl(0, 50%, 50%)"",""hsl(225, 50%, 50%)""]","[""white""]","0","0","0","circle","black","3","2","2","16.987654320987655","[20,14,17,17,17,17,17,17,17,17,17,17,17,17,17,17,17,17,17,17,17,17,17,17,17,17,17,17,17,17,17,17,17,17,17,17,17,17,17,17,17,17,17,17,17,17,17,17,17,17,17,16,17,17,17,17,17,17,17,17,17,17,17,17,17,17,17,17,17,17,17,17,17,17,17,17,17,17,17,17,17]","81","960","481","false","20","20","black","1","false","1","1","1920","962","ArrowRight","staircase_motion","","","","",""
"","","","","","html-keyboard-response","189","2066289","0.0-5.0-1.0-0.0-0.0-4.0-0.0-0.0-2.11","null","","null","<p style='font-size: 60px; color: green'>正确!</p>","","","","","","","","","","","","","","","","","","","","","","","","","","","","","","","","","","","","","","","","","","","","","","","",""
"","","","","","html-keyboard-response","190","2068880","0.0-5.0-1.0-0.0-0.0-4.0-0.0-1.0","null","","null","<p style='font-size: 35px; color: white'>您的正确率为： 83% 。平均反应时为：1472毫秒。</p>","","","","","","","","","","","","","","","","","","","","","","","","","","","","","","","","","","","","","","","","","","","","","","","",""
"","","","","","html-keyboard-response","191","2069971","0.0-5.0-1.0-0.0-0.0-5.0-0.0-0.0-0.0","null","fixation","null","<p style='font-size: 48px; color: white'>+</p >","","","","","","","","","","","","","","","","","","","","","","","","","","","","","","","","","","","","","","","","","","","","","","","",""
"","","","","","rdk","192","2073070","0.0-5.0-1.0-0.0-0.0-5.0-0.0-0.0-1.0","2519","motion_test","arrowleft","","true","[""ArrowLeft"",""ArrowRight""]","ArrowLeft","3000","true","1","100","180","0.03","0","3","1","-1","2","300","300","[""hsl(0, 50%, 50%)"",""hsl(225, 50%, 50%)""]","[""white""]","0","0","0","circle","black","3","2","2","16.95364238410596","[15,17,17,17,17,17,17,17,17,17,17,16,17,17,17,17,17,17,17,17,17,17,17,17,17,17,17,17,17,17,17,17,17,17,17,17,17,17,17,17,17,17,17,17,17,17,16,17,17,17,17,16,17,17,17,17,17,17,17,17,17,17,17,17,17,17,17,17,17,17,17,17,17,17,17,17,17,17,17,17,17,17,17,17,17,17,17,17,17,17,17,16,17,17,17,17,17,17,17,17,17,17,17,17,17,17,17,17,17,17,17,17,17,17,17,17,17,17,17,17,17,17,17,17,17,17,17,17,17,17,17,16,17,17,17,17,17,17,17,17,17,17,17,17,17,17,17,17,17,17,17]","151","960","481","false","20","20","black","1","false","1","1","1920","962","ArrowLeft","staircase_motion","","","","",""
"","","","","","html-keyboard-response","193","2074155","0.0-5.0-1.0-0.0-0.0-5.0-0.0-0.0-2.0","null","","null","<p style='font-size: 60px; color: green'>正确!</p>","","","","","","","","","","","","","","","","","","","","","","","","","","","","","","","","","","","","","","","","","","","","","","","",""
"","","","","","html-keyboard-response","194","2075240","0.0-5.0-1.0-0.0-0.0-5.0-0.0-0.0-0.1","null","fixation","null","<p style='font-size: 48px; color: white'>+</p >","","","","","","","","","","","","","","","","","","","","","","","","","","","","","","","","","","","","","","","","","","","","","","","",""
"","","","","","rdk","195","2078120","0.0-5.0-1.0-0.0-0.0-5.0-0.0-0.0-1.1","2303","motion_test","arrowright","","false","[""ArrowLeft"",""ArrowRight""]","ArrowLeft","3000","true","1","100","180","0.03","0","3","1","-1","2","300","300","[""hsl(0, 50%, 50%)"",""hsl(225, 50%, 50%)""]","[""white""]","0","0","0","circle","black","3","2","2","17","[18,17,17,17,17,17,17,17,17,17,17,17,17,17,17,17,17,17,17,17,17,17,17,17,17,17,17,17,17,17,17,17,17,17,17,17,17,17,17,17,17,17,17,17,17,17,17,17,17,17,17,17,17,17,17,17,17,17,17,17,17,17,17,17,17,17,17,17,17,17,17,17,17,17,17,17,17,17,17,17,17,17,17,17,17,17,17,17,17,17,17,17,17,17,17,17,17,17,17,17,17,17,17,17,17,17,17,17,17,17,17,17,17,17,17,17,17,17,17,17,17,17,17,17,17,17,17,17,17,17,17,17,17,17,17,17,17,16]","138","960","481","false","20","20","black","1","false","1","1","1920","962","ArrowLeft","staircase_motion","","","","",""
"","","","","","html-keyboard-response","196","2079206","0.0-5.0-1.0-0.0-0.0-5.0-0.0-0.0-2.1","null","","null","<p style='font-size: 60px; color: red'>错误!</p>","","","","","","","","","","","","","","","","","","","","","","","","","","","","","","","","","","","","","","","","","","","","","","","",""
"","","","","","html-keyboard-response","197","2080289","0.0-5.0-1.0-0.0-0.0-5.0-0.0-0.0-0.2","null","fixation","null","<p style='font-size: 48px; color: white'>+</p >","","","","","","","","","","","","","","","","","","","","","","","","","","","","","","","","","","","","","","","","","","","","","","","",""
"","","","","","rdk","198","2083486","0.0-5.0-1.0-0.0-0.0-5.0-0.0-0.0-1.2","2618","motion_test","arrowleft","","false","[""ArrowLeft"",""ArrowRight""]","ArrowRight","3000","true","1","100","0","0.03","0","3","1","-1","2","300","300","[""hsl(0, 50%, 50%)"",""hsl(225, 50%, 50%)""]","[""white""]","0","0","0","circle","black","3","2","2","16.94904458598726","[16,16,17,17,17,17,17,17,17,16,17,17,17,17,17,17,17,17,17,17,17,17,17,17,17,17,17,17,17,17,17,16,17,17,17,17,17,17,17,17,17,17,17,17,17,17,15,17,17,17,17,17,17,17,17,17,17,17,17,17,17,17,17,17,17,17,17,17,17,17,17,17,17,17,17,17,17,17,17,17,17,17,17,17,17,17,17,17,17,17,17,17,17,17,17,17,16,17,17,17,17,17,17,17,17,17,17,17,17,17,17,17,17,17,17,17,17,17,17,17,17,17,17,17,17,17,17,17,17,17,17,17,17,16,17,17,17,17,17,17,17,17,17,17,17,17,17,17,17,17,17,17,17,17,17,17,17]","157","960","481","false","20","20","black","1","false","1","1","1920","962","ArrowRight","staircase_motion","","","","",""
"","","","","","html-keyboard-response","199","2084572","0.0-5.0-1.0-0.0-0.0-5.0-0.0-0.0-2.2","null","","null","<p style='font-size: 60px; color: red'>错误!</p>","","","","","","","","","","","","","","","","","","","","","","","","","","","","","","","","","","","","","","","","","","","","","","","",""
"","","","","","html-keyboard-response","200","2085655","0.0-5.0-1.0-0.0-0.0-5.0-0.0-0.0-0.3","null","fixation","null","<p style='font-size: 48px; color: white'>+</p >","","","","","","","","","","","","","","","","","","","","","","","","","","","","","","","","","","","","","","","","","","","","","","","",""
"","","","","","rdk","201","2088094","0.0-5.0-1.0-0.0-0.0-5.0-0.0-0.0-1.3","1860","motion_test","arrowright","","true","[""ArrowLeft"",""ArrowRight""]","ArrowRight","3000","true","1","100","0","0.03","0","3","1","-1","2","300","300","[""hsl(0, 50%, 50%)"",""hsl(225, 50%, 50%)""]","[""white""]","0","0","0","circle","black","3","2","2","16.972972972972972","[15,17,17,17,17,17,17,17,17,17,17,17,17,17,17,17,17,17,17,17,17,17,17,17,17,17,17,17,17,17,17,17,17,17,17,17,17,17,17,17,17,17,17,17,17,17,17,17,17,17,17,17,17,17,17,17,17,17,17,17,17,17,17,17,17,17,17,17,17,17,17,17,17,17,17,17,17,17,17,17,17,17,17,17,17,17,17,16,17,17,17,17,17,17,17,17,17,17,17,17,17,17,17,17,17,17,17,17,17,17,17]","111","960","481","false","20","20","black","1","false","1","1","1920","962","ArrowRight","staircase_motion","","","","",""
"","","","","","html-keyboard-response","202","2089189","0.0-5.0-1.0-0.0-0.0-5.0-0.0-0.0-2.3","null","","null","<p style='font-size: 60px; color: green'>正确!</p>","","","","","","","","","","","","","","","","","","","","","","","","","","","","","","","","","","","","","","","","","","","","","","","",""
"","","","","","html-keyboard-response","203","2090274","0.0-5.0-1.0-0.0-0.0-5.0-0.0-0.0-0.4","null","fixation","null","<p style='font-size: 48px; color: white'>+</p >","","","","","","","","","","","","","","","","","","","","","","","","","","","","","","","","","","","","","","","","","","","","","","","",""
"","","","","","rdk","204","2093806","0.0-5.0-1.0-0.0-0.0-5.0-0.0-0.0-1.4","2955","motion_test","arrowleft","","false","[""ArrowLeft"",""ArrowRight""]","ArrowRight","3000","true","1","100","0","0.03","0","3","1","-1","2","300","300","[""hsl(0, 50%, 50%)"",""hsl(225, 50%, 50%)""]","[""white""]","0","0","0","circle","black","3","2","2","16.97159090909091","[16,17,17,17,17,17,17,17,17,17,17,17,17,17,17,17,17,17,17,17,17,17,17,17,17,17,17,17,17,17,17,17,17,17,17,17,17,17,17,17,17,17,17,17,17,17,17,17,17,17,17,17,16,17,17,17,17,17,17,17,17,17,17,17,17,17,17,17,17,17,17,17,17,17,17,17,17,17,17,17,17,17,17,17,17,17,17,17,17,17,17,17,17,17,17,17,17,17,16,17,17,17,17,17,17,17,17,17,17,17,17,17,17,17,17,17,17,17,17,17,17,17,17,17,17,17,17,17,17,17,17,17,17,17,17,17,17,17,17,17,17,16,17,17,17,17,17,17,17,17,17,17,17,17,17,17,17,17,17,17,16,17,17,17,17,17,17,17,17,17,17,17,17,17,17,17]","176","960","481","false","20","20","black","1","false","1","1","1920","962","ArrowRight","staircase_motion","","","","",""
"","","","","","html-keyboard-response","205","2094888","0.0-5.0-1.0-0.0-0.0-5.0-0.0-0.0-2.4","null","","null","<p style='font-size: 60px; color: red'>错误!</p>","","","","","","","","","","","","","","","","","","","","","","","","","","","","","","","","","","","","","","","","","","","","","","","",""
"","","","","","html-keyboard-response","206","2095972","0.0-5.0-1.0-0.0-0.0-5.0-0.0-0.0-0.5","null","fixation","null","<p style='font-size: 48px; color: white'>+</p >","","","","","","","","","","","","","","","","","","","","","","","","","","","","","","","","","","","","","","","","","","","","","","","",""
