"success","timeout","failed_images","failed_audio","failed_video","trial_type","trial_index","time_elapsed","internal_node_id","rt","part","response","stimulus","correct","choices","correct_choice","trial_duration","response_ends_trial","number_of_apertures","number_of_dots","coherent_direction","coherence","opposite_coherence","dot_radius","dot_side_length","dot_life","move_distance","aperture_width","aperture_height","dot_color","dot_color_final","color_change_delay","target_color_proportion","motion_change_delay","dot_shape","background_color","RDK_type","aperture_type","reinsert_type","frame_rate","frame_rate_array","number_of_frames","aperture_center_x","aperture_center_y","fixation_cross","fixation_cross_width","fixation_cross_height","fixation_cross_color","fixation_cross_thickness","border","border_thickness","border_color","canvas_width","canvas_height","correct_response","data_label","task","difficulty","isMatch","association","label"
"true","false","[]","[]","[]","preload","0","6","0.0-0.0","","","","","","","","","","","","","","","","","","","","","","","","","","","","","","","","","","","","","","","","","","","","","","","","","","","",""
"true","","","","","fullscreen","1","238432","0.0-1.0","236783","fullScreen","","","","","","","","","","","","","","","","","","","","","","","","","","","","","","","","","","","","","","","","","","","","","","","","","",""
"","","","","","survey","2","250123","0.0-2.0","11005","survey","{""sex"":""女"",""age"":18,""hands"":""右"",""color_blindness"":""都不是""}","","","","","","","","","","","","","","","","","","","","","","","","","","","","","","","","","","","","","","","","","","","","","","","","",""
"","","","","","survey-text","3","263271","0.0-3.0","12507","color_test","{""Q0"":""BE""}","","","","","","","","","","","","","","","","","","","","","","","","","","","","","","","","","","","","","","","","","","","","","","","","",""
"","","","","","html-keyboard-response","4","267953","0.0-4.0","4044","instruction_beginning"," ","
      <div style=""text-align: left; color: white"">
        <h3 style=""text-align: center; font-size: 30px; margin: 0;"">欢迎参与本实验</h3>
          <p>为充分保障您的权利，请确保您已经知晓并同意《参与实验同意书》以及《数据公开知情同意书》，</p>
          <p>如果您未见过上述内容，请咨询实验员 ，</p>
          <p>如果您选择继续实验，则表示您已经清楚两份知情同意书的内容并同意 。</p>
          <p>在整个实验中，您需要完成两项任务，具体的任务要求会在后面说明 ，</p>
          <p>请按空格键进入实验</p >
      </div>","","","","","","","","","","","","","","","","","","","","","","","","","","","","","","","","","","","","","","","","","","","","","","","",""
"","","","","","html-keyboard-response","5","315285","0.0-5.0-0.0","46698","instruction_getThreshold"," ","
      <div style=""text-align: left; color: white; padding: 10px""> 
        <h3 style=""text-align: center; font-size: 30px; margin: 10px"">欢迎进入实验！</h3>
        <p>在正式开始前，我们将通过一个快速测试为您打造专属的难度水平。<p>
        <p>接下来，屏幕上会呈现一些运动的彩色圆点，</p>
        <p>其中一定比例的点 <span style=""font-weight: bold"">一致地水平向左或向右运动</span> ，其余点随机方向运动</p >
        <p>您需要<span style=""font-weight: bold"">忽略点的颜色</span>并在3秒内判断一致的运动方向是向左还是向右:</p >
        <ul>
          <li><span style=""font-weight: bold"">向左</span>，请按键盘 <span style=""font-weight: bold"">左键</span></li>
          <li><span style=""font-weight: bold"">向右</span>，请按键盘 <span style=""font-weight: bold"">右键</span> </li>
        </ul>
        <p>如有疑问请向主试咨询，没有则按下空格键开始</p>
      </div>","","","","","","","","","","","","","","","","","","","","","","","","","","","","","","","","","","","","","","","","","","","","","","","",""
"","","","","","html-keyboard-response","6","316444","0.0-5.0-1.0-0.0-0.0-0.0-0.0-0.0-0.0","null","fixation","null","<p style='font-size: 48px; color: white'>+</p >","","","","","","","","","","","","","","","","","","","","","","","","","","","","","","","","","","","","","","","","","","","","","","","",""
"","","","","","rdk","7","320096","0.0-5.0-1.0-0.0-0.0-0.0-0.0-0.0-1.0","-1","motion_test","","","false","[""ArrowLeft"",""ArrowRight""]","ArrowRight","3000","true","1","100","0","0.15","0","3","1","-1","2","300","300","[""hsl(0, 50%, 50%)"",""hsl(225, 50%, 50%)""]","[""white""]","0","0","0","circle","black","3","2","2","16.944444444444443","[18,16,17,17,17,17,17,17,17,17,17,17,17,17,17,17,17,17,17,17,17,17,17,17,16,17,17,17,15,17,17,17,17,17,17,17,17,17,17,17,17,17,17,17,17,17,17,17,17,17,17,17,17,17,17,17,17,17,17,17,17,17,17,17,17,17,17,17,17,17,17,17,17,17,17,17,17,17,17,17,17,17,17,17,17,17,16,17,17,16,17,17,17,17,17,17,17,17,17,16,17,17,17,17,17,17,17,16,17,17,17,17,17,17,17,17,17,17,17,17,17,17,17,17,17,17,17,17,17,17,16,17,17,17,17,17,17,17,17,17,17,17,17,17,17,17,17,17,17,16,17,17,17,17,17,17,17,17,17,17,17,17,17,16,17,17,17,17,17,17,17,17,17,17,17,17,17,17,17,17]","180","960","484.5","false","20","20","black","1","false","1","1","1920","969","ArrowRight","staircase_motion","","","","",""
"","","","","","html-keyboard-response","8","321244","0.0-5.0-1.0-0.0-0.0-0.0-0.0-0.0-2.0","null","","null","<p style='font-size: 60px; color: yellow'>太慢!</p>","","","","","","","","","","","","","","","","","","","","","","","","","","","","","","","","","","","","","","","","","","","","","","","",""
"","","","","","html-keyboard-response","9","322394","0.0-5.0-1.0-0.0-0.0-0.0-0.0-0.0-0.1","null","fixation","null","<p style='font-size: 48px; color: white'>+</p >","","","","","","","","","","","","","","","","","","","","","","","","","","","","","","","","","","","","","","","","","","","","","","","",""
"","","","","","rdk","10","325270","0.0-5.0-1.0-0.0-0.0-0.0-0.0-0.0-1.1","2232","motion_test","arrowleft","","true","[""ArrowLeft"",""ArrowRight""]","ArrowLeft","3000","true","1","100","180","0.15","0","3","1","-1","2","300","300","[""hsl(0, 50%, 50%)"",""hsl(225, 50%, 50%)""]","[""white""]","0","0","0","circle","black","3","2","2","16.65671641791045","[2,18,16,17,16,17,17,17,17,16,17,17,16,17,17,17,16,17,17,17,16,16,18,15,17,16,17,16,17,16,17,17,17,16,17,17,16,17,17,17,16,17,16,16,17,17,17,17,17,17,17,17,17,17,17,17,17,17,17,17,16,17,17,17,17,17,17,17,17,17,17,16,17,17,17,17,17,17,17,16,17,17,17,17,17,17,15,17,16,17,17,16,17,17,18,17,17,16,17,17,17,17,16,17,17,17,16,17,17,17,16,17,16,16,17,17,17,17,17,17,17,17,17,16,17,17,16,17,16,17,17,17,16,17]","134","960","484.5","false","20","20","black","1","false","1","1","1920","969","ArrowLeft","staircase_motion","","","","",""
"","","","","","html-keyboard-response","11","326427","0.0-5.0-1.0-0.0-0.0-0.0-0.0-0.0-2.1","null","","null","<p style='font-size: 60px; color: green'>正确!</p>","","","","","","","","","","","","","","","","","","","","","","","","","","","","","","","","","","","","","","","","","","","","","","","",""
"","","","","","html-keyboard-response","12","327577","0.0-5.0-1.0-0.0-0.0-0.0-0.0-0.0-0.2","null","fixation","null","<p style='font-size: 48px; color: white'>+</p >","","","","","","","","","","","","","","","","","","","","","","","","","","","","","","","","","","","","","","","","","","","","","","","",""
"","","","","","rdk","13","331226","0.0-5.0-1.0-0.0-0.0-0.0-0.0-0.0-1.2","-1","motion_test","","","false","[""ArrowLeft"",""ArrowRight""]","ArrowLeft","3000","true","1","100","180","0.15","0","3","1","-1","2","300","300","[""hsl(0, 50%, 50%)"",""hsl(225, 50%, 50%)""]","[""white""]","0","0","0","circle","black","3","2","2","16.734806629834253","[2,16,17,16,17,17,17,17,17,16,17,17,17,17,16,17,17,17,17,16,18,16,17,17,17,17,17,17,17,16,18,16,17,18,16,17,17,17,17,17,17,17,17,17,16,17,16,18,17,17,17,16,18,16,17,17,17,17,17,17,16,17,17,17,17,17,17,17,17,17,17,17,17,17,17,17,17,17,17,17,17,17,17,15,18,15,17,17,17,17,17,15,18,16,16,18,15,17,17,17,16,18,16,17,17,17,18,16,17,17,16,17,17,17,17,17,17,16,17,17,16,18,16,17,17,17,17,17,16,16,17,17,16,17,17,17,17,17,17,16,17,17,17,17,17,17,17,17,17,17,17,16,18,15,18,15,17,17,17,17,15,17,17,17,17,17,16,17,16,18,16,17,17,17,17,16,18,16,17,17,16]","181","960","484.5","false","20","20","black","1","false","1","1","1920","969","ArrowLeft","staircase_motion","","","","",""
"","","","","","html-keyboard-response","14","332381","0.0-5.0-1.0-0.0-0.0-0.0-0.0-0.0-2.2","null","","null","<p style='font-size: 60px; color: yellow'>太慢!</p>","","","","","","","","","","","","","","","","","","","","","","","","","","","","","","","","","","","","","","","","","","","","","","","",""
"","","","","","html-keyboard-response","15","333527","0.0-5.0-1.0-0.0-0.0-0.0-0.0-0.0-0.3","null","fixation","null","<p style='font-size: 48px; color: white'>+</p >","","","","","","","","","","","","","","","","","","","","","","","","","","","","","","","","","","","","","","","","","","","","","","","",""
"","","","","","rdk","16","335989","0.0-5.0-1.0-0.0-0.0-0.0-0.0-0.0-1.3","1818","motion_test","arrowleft","","false","[""ArrowLeft"",""ArrowRight""]","ArrowRight","3000","true","1","100","0","0.15","0","3","1","-1","2","300","300","[""hsl(0, 50%, 50%)"",""hsl(225, 50%, 50%)""]","[""white""]","0","0","0","circle","black","3","2","2","16.834862385321102","[3,17,17,17,17,17,17,17,17,17,17,17,17,17,17,17,17,16,17,17,17,17,17,17,17,17,17,17,17,17,17,17,17,17,17,17,17,17,17,17,17,17,17,17,17,17,17,17,16,17,17,17,17,17,17,17,17,17,17,17,17,17,17,17,17,17,17,17,17,17,17,17,17,17,17,17,17,17,17,17,17,16,17,17,17,17,17,17,17,17,17,17,17,17,17,17,17,17,17,16,17,17,17,17,17,17,17,17,17]","109","960","484.5","false","20","20","black","1","false","1","1","1920","969","ArrowRight","staircase_motion","","","","",""
"","","","","","html-keyboard-response","17","337144","0.0-5.0-1.0-0.0-0.0-0.0-0.0-0.0-2.3","null","","null","<p style='font-size: 60px; color: red'>错误!</p>","","","","","","","","","","","","","","","","","","","","","","","","","","","","","","","","","","","","","","","","","","","","","","","",""
"","","","","","html-keyboard-response","18","338294","0.0-5.0-1.0-0.0-0.0-0.0-0.0-0.0-0.4","null","fixation","null","<p style='font-size: 48px; color: white'>+</p >","","","","","","","","","","","","","","","","","","","","","","","","","","","","","","","","","","","","","","","","","","","","","","","",""
"","","","","","rdk","19","341941","0.0-5.0-1.0-0.0-0.0-0.0-0.0-0.0-1.4","-1","motion_test","","","false","[""ArrowLeft"",""ArrowRight""]","ArrowLeft","3000","true","1","100","180","0.15","0","3","1","-1","2","300","300","[""hsl(0, 50%, 50%)"",""hsl(225, 50%, 50%)""]","[""white""]","0","0","0","circle","black","3","2","2","16.716666666666665","[6,12,17,17,17,17,17,17,17,17,17,17,17,17,17,17,17,17,16,17,17,17,17,17,17,17,17,16,17,17,17,17,17,17,17,17,17,17,17,15,17,16,17,17,17,17,17,16,17,17,17,17,17,17,17,17,17,17,16,17,17,17,17,17,16,17,17,17,17,17,15,17,16,18,16,17,17,17,16,18,16,17,17,17,16,17,18,15,17,17,17,16,18,16,17,17,17,17,16,18,15,17,17,17,17,17,17,17,17,16,16,18,16,18,16,16,18,16,17,17,17,17,16,17,16,17,17,17,17,17,17,17,17,17,17,17,17,15,17,17,18,15,17,17,16,17,16,18,15,17,17,18,15,17,17,17,16,17,17,17,19,15,17,17,17,17,17,17,16,18,15,18,16,17,17,16,16,18,15,17]","180","960","484.5","false","20","20","black","1","false","1","1","1920","969","ArrowLeft","staircase_motion","","","","",""
"","","","","","html-keyboard-response","20","343096","0.0-5.0-1.0-0.0-0.0-0.0-0.0-0.0-2.4","null","","null","<p style='font-size: 60px; color: yellow'>太慢!</p>","","","","","","","","","","","","","","","","","","","","","","","","","","","","","","","","","","","","","","","","","","","","","","","",""
"","","","","","html-keyboard-response","21","344245","0.0-5.0-1.0-0.0-0.0-0.0-0.0-0.0-0.5","null","fixation","null","<p style='font-size: 48px; color: white'>+</p >","","","","","","","","","","","","","","","","","","","","","","","","","","","","","","","","","","","","","","","","","","","","","","","",""
"","","","","","rdk","22","346085","0.0-5.0-1.0-0.0-0.0-0.0-0.0-0.0-1.5","1198","motion_test","arrowleft","","true","[""ArrowLeft"",""ArrowRight""]","ArrowLeft","3000","true","1","100","180","0.15","0","3","1","-1","2","300","300","[""hsl(0, 50%, 50%)"",""hsl(225, 50%, 50%)""]","[""white""]","0","0","0","circle","black","3","2","2","16.76388888888889","[2,17,17,17,17,17,17,17,17,17,17,17,17,17,17,16,17,17,17,17,17,17,17,17,17,17,17,17,17,17,17,17,17,17,17,17,17,17,17,17,17,17,17,17,16,17,17,17,17,17,17,17,17,17,17,17,17,17,17,17,17,17,17,17,17,17,17,17,17,17,17,17]","72","960","484.5","false","20","20","black","1","false","1","1","1920","969","ArrowLeft","staircase_motion","","","","",""
"","","","","","html-keyboard-response","23","347228","0.0-5.0-1.0-0.0-0.0-0.0-0.0-0.0-2.5","null","","null","<p style='font-size: 60px; color: green'>正确!</p>","","","","","","","","","","","","","","","","","","","","","","","","","","","","","","","","","","","","","","","","","","","","","","","",""
"","","","","","html-keyboard-response","24","348377","0.0-5.0-1.0-0.0-0.0-0.0-0.0-0.0-0.6","null","fixation","null","<p style='font-size: 48px; color: white'>+</p >","","","","","","","","","","","","","","","","","","","","","","","","","","","","","","","","","","","","","","","","","","","","","","","",""
"","","","","","rdk","25","351069","0.0-5.0-1.0-0.0-0.0-0.0-0.0-0.0-1.6","2049","motion_test","arrowright","","true","[""ArrowLeft"",""ArrowRight""]","ArrowRight","3000","true","1","100","0","0.15","0","3","1","-1","2","300","300","[""hsl(0, 50%, 50%)"",""hsl(225, 50%, 50%)""]","[""white""]","0","0","0","circle","black","3","2","2","16.715447154471544","[4,17,17,17,17,17,17,17,17,17,17,16,17,17,16,17,17,17,16,17,17,17,17,17,17,16,17,16,17,17,16,17,17,17,17,17,17,17,17,17,17,16,17,17,17,17,17,17,17,17,17,17,17,17,17,17,17,17,17,17,17,17,16,17,17,17,16,17,17,16,17,17,17,17,17,16,17,16,17,17,17,17,16,17,17,17,17,17,16,17,16,17,17,16,17,17,16,17,17,17,16,17,17,16,17,17,17,17,17,17,16,17,17,16,17,17,17,17,17,17,17,17,16]","123","960","484.5","false","20","20","black","1","false","1","1","1920","969","ArrowRight","staircase_motion","","","","",""
"","","","","","html-keyboard-response","26","352212","0.0-5.0-1.0-0.0-0.0-0.0-0.0-0.0-2.6","null","","null","<p style='font-size: 60px; color: green'>正确!</p>","","","","","","","","","","","","","","","","","","","","","","","","","","","","","","","","","","","","","","","","","","","","","","","",""
"","","","","","html-keyboard-response","27","353360","0.0-5.0-1.0-0.0-0.0-0.0-0.0-0.0-0.7","null","fixation","null","<p style='font-size: 48px; color: white'>+</p >","","","","","","","","","","","","","","","","","","","","","","","","","","","","","","","","","","","","","","","","","","","","","","","",""
"","","","","","rdk","28","356078","0.0-5.0-1.0-0.0-0.0-0.0-0.0-0.0-1.7","2077","motion_test","arrowleft","","false","[""ArrowLeft"",""ArrowRight""]","ArrowRight","3000","true","1","100","0","0.15","0","3","1","-1","2","300","300","[""hsl(0, 50%, 50%)"",""hsl(225, 50%, 50%)""]","[""white""]","0","0","0","circle","black","3","2","2","16.712","[6,17,17,17,17,17,16,17,17,17,17,17,17,16,17,17,17,17,16,17,17,16,17,17,16,17,17,17,16,17,17,17,17,17,17,17,16,17,17,17,16,17,17,17,17,17,17,17,17,16,17,17,16,17,17,16,17,17,17,17,17,16,17,16,17,17,17,17,16,17,17,16,17,17,17,17,17,17,17,15,17,16,17,16,17,17,17,17,17,17,17,17,17,16,17,17,17,17,17,16,17,17,17,17,17,17,17,16,17,17,16,17,17,17,17,16,17,17,17,17,16,17,17,17,17]","125","960","484.5","false","20","20","black","1","false","1","1","1920","969","ArrowRight","staircase_motion","","","","",""
"","","","","","html-keyboard-response","29","357229","0.0-5.0-1.0-0.0-0.0-0.0-0.0-0.0-2.7","null","","null","<p style='font-size: 60px; color: red'>错误!</p>","","","","","","","","","","","","","","","","","","","","","","","","","","","","","","","","","","","","","","","","","","","","","","","",""
"","","","","","html-keyboard-response","30","358377","0.0-5.0-1.0-0.0-0.0-0.0-0.0-0.0-0.8","null","fixation","null","<p style='font-size: 48px; color: white'>+</p >","","","","","","","","","","","","","","","","","","","","","","","","","","","","","","","","","","","","","","","","","","","","","","","",""
"","","","","","rdk","31","361156","0.0-5.0-1.0-0.0-0.0-0.0-0.0-0.0-1.8","2135","motion_test","arrowright","","true","[""ArrowLeft"",""ArrowRight""]","ArrowRight","3000","true","1","100","0","0.15","0","3","1","-1","2","300","300","[""hsl(0, 50%, 50%)"",""hsl(225, 50%, 50%)""]","[""white""]","0","0","0","circle","black","3","2","2","16.6875","[7,11,17,16,18,15,18,16,17,17,17,16,16,18,16,17,17,16,17,17,17,17,17,17,17,17,17,17,17,17,17,17,17,16,17,17,17,17,17,17,17,16,17,16,17,17,17,18,16,16,17,18,16,17,17,17,17,17,17,16,17,17,17,17,17,17,17,17,17,16,17,17,17,17,17,17,16,17,17,17,17,17,17,15,17,17,17,17,17,17,16,18,16,17,17,16,18,16,17,17,17,16,17,17,17,17,17,16,18,16,17,17,17,17,17,17,16,17,16,17,16,18,16,17,17,15,18,15]","128","960","484.5","false","20","20","black","1","false","1","1","1920","969","ArrowRight","staircase_motion","","","","",""
"","","","","","html-keyboard-response","32","362311","0.0-5.0-1.0-0.0-0.0-0.0-0.0-0.0-2.8","null","","null","<p style='font-size: 60px; color: green'>正确!</p>","","","","","","","","","","","","","","","","","","","","","","","","","","","","","","","","","","","","","","","","","","","","","","","",""
"","","","","","html-keyboard-response","33","363460","0.0-5.0-1.0-0.0-0.0-0.0-0.0-0.0-0.9","null","fixation","null","<p style='font-size: 48px; color: white'>+</p >","","","","","","","","","","","","","","","","","","","","","","","","","","","","","","","","","","","","","","","","","","","","","","","",""
"","","","","","rdk","34","366085","0.0-5.0-1.0-0.0-0.0-0.0-0.0-0.0-1.9","1981","motion_test","arrowleft","","false","[""ArrowLeft"",""ArrowRight""]","ArrowRight","3000","true","1","100","0","0.15","0","3","1","-1","2","300","300","[""hsl(0, 50%, 50%)"",""hsl(225, 50%, 50%)""]","[""white""]","0","0","0","circle","black","3","2","2","16.680672268907564","[3,17,16,17,16,17,17,17,17,17,17,17,16,17,17,17,17,16,17,16,17,17,17,17,17,17,17,16,17,17,16,17,17,17,17,17,16,17,17,17,16,17,17,17,17,16,17,17,17,17,17,17,17,17,17,17,17,16,17,16,17,17,17,17,16,17,15,17,17,17,17,17,17,17,17,17,17,17,17,16,17,17,17,16,17,17,17,17,16,17,17,17,17,17,17,17,17,16,17,17,17,16,16,17,17,17,16,17,17,16,17,17,17,17,17,17,17,16,17]","119","960","484.5","false","20","20","black","1","false","1","1","1920","969","ArrowRight","staircase_motion","","","","",""
"","","","","","html-keyboard-response","35","367229","0.0-5.0-1.0-0.0-0.0-0.0-0.0-0.0-2.9","null","","null","<p style='font-size: 60px; color: red'>错误!</p>","","","","","","","","","","","","","","","","","","","","","","","","","","","","","","","","","","","","","","","","","","","","","","","",""
"","","","","","html-keyboard-response","36","368377","0.0-5.0-1.0-0.0-0.0-0.0-0.0-0.0-0.10","null","fixation","null","<p style='font-size: 48px; color: white'>+</p >","","","","","","","","","","","","","","","","","","","","","","","","","","","","","","","","","","","","","","","","","","","","","","","",""
"","","","","","rdk","37","370669","0.0-5.0-1.0-0.0-0.0-0.0-0.0-0.0-1.10","1649","motion_test","arrowleft","","true","[""ArrowLeft"",""ArrowRight""]","ArrowLeft","3000","true","1","100","180","0.15","0","3","1","-1","2","300","300","[""hsl(0, 50%, 50%)"",""hsl(225, 50%, 50%)""]","[""white""]","0","0","0","circle","black","3","2","2","16.696969696969695","[2,18,16,17,17,17,17,17,17,17,17,17,17,17,17,17,16,17,16,17,17,16,16,16,16,17,17,16,17,17,17,17,17,17,17,17,17,17,15,16,17,16,17,17,17,17,17,17,17,17,17,17,17,17,17,17,17,17,16,17,17,17,17,17,17,17,17,17,17,17,17,17,17,17,17,17,17,17,17,17,17,17,17,17,17,17,17,17,17,17,16,17,17,16,17,17,17,16,17]","99","960","484.5","false","20","20","black","1","false","1","1","1920","969","ArrowLeft","staircase_motion","","","","",""
"","","","","","html-keyboard-response","38","371827","0.0-5.0-1.0-0.0-0.0-0.0-0.0-0.0-2.10","null","","null","<p style='font-size: 60px; color: green'>正确!</p>","","","","","","","","","","","","","","","","","","","","","","","","","","","","","","","","","","","","","","","","","","","","","","","",""
"","","","","","html-keyboard-response","39","372977","0.0-5.0-1.0-0.0-0.0-0.0-0.0-0.0-0.11","null","fixation","null","<p style='font-size: 48px; color: white'>+</p >","","","","","","","","","","","","","","","","","","","","","","","","","","","","","","","","","","","","","","","","","","","","","","","",""
"","","","","","rdk","40","374683","0.0-5.0-1.0-0.0-0.0-0.0-0.0-0.0-1.11","1063","motion_test","arrowleft","","true","[""ArrowLeft"",""ArrowRight""]","ArrowLeft","3000","true","1","100","180","0.15","0","3","1","-1","2","300","300","[""hsl(0, 50%, 50%)"",""hsl(225, 50%, 50%)""]","[""white""]","0","0","0","circle","black","3","2","2","16.71875","[3,16,17,17,17,17,17,17,17,16,17,17,17,17,17,16,17,17,17,17,17,17,17,17,17,17,16,18,17,17,17,17,17,17,17,17,17,17,17,17,17,17,17,16,17,17,17,17,17,17,17,17,17,17,17,17,17,17,17,17,17,17,17,17]","64","960","484.5","false","20","20","black","1","false","1","1","1920","969","ArrowLeft","staircase_motion","","","","",""
"","","","","","html-keyboard-response","41","375839","0.0-5.0-1.0-0.0-0.0-0.0-0.0-0.0-2.11","null","","null","<p style='font-size: 60px; color: green'>正确!</p>","","","","","","","","","","","","","","","","","","","","","","","","","","","","","","","","","","","","","","","","","","","","","","","",""
"","","","","","html-keyboard-response","42","378489","0.0-5.0-1.0-0.0-0.0-0.0-0.0-1.0","null","","null","<p style='font-size: 35px; color: white'>您的正确率为： 50% 。平均反应时为：1350毫秒。</p>","","","","","","","","","","","","","","","","","","","","","","","","","","","","","","","","","","","","","","","","","","","","","","","",""
"","","","","","html-keyboard-response","43","379637","0.0-5.0-1.0-0.0-0.0-1.0-0.0-0.0-0.0","null","fixation","null","<p style='font-size: 48px; color: white'>+</p >","","","","","","","","","","","","","","","","","","","","","","","","","","","","","","","","","","","","","","","","","","","","","","","",""
"","","","","","rdk","44","382159","0.0-5.0-1.0-0.0-0.0-1.0-0.0-0.0-1.0","1878","motion_test","arrowleft","","false","[""ArrowLeft"",""ArrowRight""]","ArrowRight","3000","true","1","100","0","0.11","0","3","1","-1","2","300","300","[""hsl(0, 50%, 50%)"",""hsl(225, 50%, 50%)""]","[""white""]","0","0","0","circle","black","3","2","2","16.68141592920354","[3,16,17,17,17,17,17,17,17,17,17,17,16,17,17,16,17,17,16,17,17,17,17,17,16,17,17,17,17,17,17,17,17,17,17,16,17,17,17,17,17,16,17,17,17,17,17,17,17,16,17,17,17,17,17,17,16,16,16,16,17,17,17,17,17,17,17,17,17,16,17,17,17,17,17,17,16,17,16,17,17,17,16,17,17,17,16,17,17,17,17,17,17,17,17,17,16,17,17,17,17,17,16,17,16,17,17,16,17,17,17,16,17]","113","960","484.5","false","20","20","black","1","false","1","1","1920","969","ArrowRight","staircase_motion","","","","",""
"","","","","","html-keyboard-response","45","383304","0.0-5.0-1.0-0.0-0.0-1.0-0.0-0.0-2.0","null","","null","<p style='font-size: 60px; color: red'>错误!</p>","","","","","","","","","","","","","","","","","","","","","","","","","","","","","","","","","","","","","","","","","","","","","","","",""
"","","","","","html-keyboard-response","46","384454","0.0-5.0-1.0-0.0-0.0-1.0-0.0-0.0-0.1","null","fixation","null","<p style='font-size: 48px; color: white'>+</p >","","","","","","","","","","","","","","","","","","","","","","","","","","","","","","","","","","","","","","","","","","","","","","","",""
"","","","","","rdk","47","386625","0.0-5.0-1.0-0.0-0.0-1.0-0.0-0.0-1.1","1527","motion_test","arrowleft","","true","[""ArrowLeft"",""ArrowRight""]","ArrowLeft","3000","true","1","100","180","0.11","0","3","1","-1","2","300","300","[""hsl(0, 50%, 50%)"",""hsl(225, 50%, 50%)""]","[""white""]","0","0","0","circle","black","3","2","2","16.815217391304348","[3,16,17,17,17,17,17,17,17,17,17,17,17,17,17,17,16,17,17,17,17,17,17,17,17,17,17,17,17,17,17,17,17,17,17,17,17,17,17,16,17,17,17,17,17,17,17,17,17,17,17,17,17,17,17,17,17,17,17,17,17,17,17,17,17,17,17,17,17,17,17,17,17,17,17,17,17,17,17,17,17,17,17,17,17,17,17,17,17,17,17,17]","92","960","484.5","false","20","20","black","1","false","1","1","1920","969","ArrowLeft","staircase_motion","","","","",""
"","","","","","html-keyboard-response","48","387772","0.0-5.0-1.0-0.0-0.0-1.0-0.0-0.0-2.1","null","","null","<p style='font-size: 60px; color: green'>正确!</p>","","","","","","","","","","","","","","","","","","","","","","","","","","","","","","","","","","","","","","","","","","","","","","","",""
"","","","","","html-keyboard-response","49","388921","0.0-5.0-1.0-0.0-0.0-1.0-0.0-0.0-0.2","null","fixation","null","<p style='font-size: 48px; color: white'>+</p >","","","","","","","","","","","","","","","","","","","","","","","","","","","","","","","","","","","","","","","","","","","","","","","",""
"","","","","","rdk","50","391926","0.0-5.0-1.0-0.0-0.0-1.0-0.0-0.0-1.2","2362","motion_test","arrowleft","","true","[""ArrowLeft"",""ArrowRight""]","ArrowLeft","3000","true","1","100","180","0.11","0","3","1","-1","2","300","300","[""hsl(0, 50%, 50%)"",""hsl(225, 50%, 50%)""]","[""white""]","0","0","0","circle","black","3","2","2","16.830985915492956","[3,16,17,17,17,17,17,17,17,17,17,17,17,17,17,17,17,17,17,17,17,17,17,17,17,17,17,17,17,17,17,17,17,17,17,17,17,17,17,17,17,17,17,17,16,17,17,17,17,17,17,17,17,17,17,17,17,17,17,17,17,16,17,17,17,17,17,17,17,17,17,16,17,17,17,17,17,17,17,17,17,17,17,17,17,17,17,16,17,17,17,17,17,17,17,17,17,17,17,17,16,16,17,17,17,17,17,18,16,17,17,17,17,17,17,17,17,16,17,17,17,17,17,17,16,17,17,17,17,17,17,17,17,16,17,17,17,17,17,17,17,17]","142","960","484.5","false","20","20","black","1","false","1","1","1920","969","ArrowLeft","staircase_motion","","","","",""
"","","","","","html-keyboard-response","51","393073","0.0-5.0-1.0-0.0-0.0-1.0-0.0-0.0-2.2","null","","null","<p style='font-size: 60px; color: green'>正确!</p>","","","","","","","","","","","","","","","","","","","","","","","","","","","","","","","","","","","","","","","","","","","","","","","",""
"","","","","","html-keyboard-response","52","394221","0.0-5.0-1.0-0.0-0.0-1.0-0.0-0.0-0.3","null","fixation","null","<p style='font-size: 48px; color: white'>+</p >","","","","","","","","","","","","","","","","","","","","","","","","","","","","","","","","","","","","","","","","","","","","","","","",""
"","","","","","rdk","53","396831","0.0-5.0-1.0-0.0-0.0-1.0-0.0-0.0-1.3","1969","motion_test","arrowleft","","false","[""ArrowLeft"",""ArrowRight""]","ArrowRight","3000","true","1","100","0","0.11","0","3","1","-1","2","300","300","[""hsl(0, 50%, 50%)"",""hsl(225, 50%, 50%)""]","[""white""]","0","0","0","circle","black","3","2","2","16.75423728813559","[1,19,15,17,17,17,17,17,17,17,16,17,17,17,17,17,17,18,16,18,15,17,17,17,17,17,17,17,16,17,17,17,17,17,16,17,16,17,17,17,17,17,16,17,16,17,17,17,17,16,17,17,17,17,17,17,17,17,17,17,16,17,17,17,17,17,17,17,17,17,16,17,17,17,17,17,17,17,17,17,17,16,17,17,17,17,17,17,17,17,17,17,17,17,17,17,17,17,17,17,17,17,17,17,17,16,17,17,17,17,16,17,17,17,17,17,17,17]","118","960","484.5","false","20","20","black","1","false","1","1","1920","969","ArrowRight","staircase_motion","","","","",""
"","","","","","html-keyboard-response","54","397989","0.0-5.0-1.0-0.0-0.0-1.0-0.0-0.0-2.3","null","","null","<p style='font-size: 60px; color: red'>错误!</p>","","","","","","","","","","","","","","","","","","","","","","","","","","","","","","","","","","","","","","","","","","","","","","","",""
"","","","","","html-keyboard-response","55","399137","0.0-5.0-1.0-0.0-0.0-1.0-0.0-0.0-0.4","null","fixation","null","<p style='font-size: 48px; color: white'>+</p >","","","","","","","","","","","","","","","","","","","","","","","","","","","","","","","","","","","","","","","","","","","","","","","",""
"","","","","","rdk","56","402431","0.0-5.0-1.0-0.0-0.0-1.0-0.0-0.0-1.4","2649","motion_test","arrowright","","false","[""ArrowLeft"",""ArrowRight""]","ArrowLeft","3000","true","1","100","180","0.11","0","3","1","-1","2","300","300","[""hsl(0, 50%, 50%)"",""hsl(225, 50%, 50%)""]","[""white""]","0","0","0","circle","black","3","2","2","16.836477987421382","[3,16,17,17,17,17,18,16,17,17,17,17,17,17,17,17,17,17,17,17,17,17,17,17,17,17,17,17,17,16,17,17,17,17,16,17,17,17,16,17,17,17,17,17,16,17,17,17,17,17,17,17,17,17,17,17,17,17,17,17,17,17,17,17,17,17,17,17,17,17,17,17,17,16,17,17,17,17,17,17,17,17,17,17,17,17,17,17,16,17,17,17,17,17,17,17,17,17,17,17,17,17,17,15,17,17,17,17,17,17,17,17,17,17,18,17,16,17,17,17,17,17,16,17,17,17,17,17,17,17,17,17,17,17,17,17,17,17,17,17,17,17,17,16,17,17,16,17,17,17,17,17,17,17,17,17,17,17,17]","159","960","484.5","false","20","20","black","1","false","1","1","1920","969","ArrowLeft","staircase_motion","","","","",""
"","","","","","html-keyboard-response","57","403589","0.0-5.0-1.0-0.0-0.0-1.0-0.0-0.0-2.4","null","","null","<p style='font-size: 60px; color: red'>错误!</p>","","","","","","","","","","","","","","","","","","","","","","","","","","","","","","","","","","","","","","","","","","","","","","","",""
"","","","","","html-keyboard-response","58","404737","0.0-5.0-1.0-0.0-0.0-1.0-0.0-0.0-0.5","null","fixation","null","<p style='font-size: 48px; color: white'>+</p >","","","","","","","","","","","","","","","","","","","","","","","","","","","","","","","","","","","","","","","","","","","","","","","",""
"","","","","","rdk","59","407894","0.0-5.0-1.0-0.0-0.0-1.0-0.0-0.0-1.5","2513","motion_test","arrowleft","","false","[""ArrowLeft"",""ArrowRight""]","ArrowRight","3000","true","1","100","0","0.11","0","3","1","-1","2","300","300","[""hsl(0, 50%, 50%)"",""hsl(225, 50%, 50%)""]","[""white""]","0","0","0","circle","black","3","2","2","16.86092715231788","[3,16,17,17,17,17,17,17,17,17,17,17,17,17,16,17,17,17,17,17,17,17,17,17,17,17,17,17,17,16,16,17,17,17,17,17,17,17,17,17,17,17,17,17,16,17,16,17,17,17,17,17,17,17,17,17,17,17,17,17,17,17,17,17,17,17,17,17,17,17,17,17,17,17,17,17,17,17,17,17,17,17,17,17,17,17,17,17,17,17,17,17,17,17,17,17,17,17,17,17,17,17,17,17,17,17,17,17,17,17,17,17,17,17,17,17,17,17,17,17,17,17,17,17,17,17,17,17,17,17,17,17,17,17,17,17,17,17,17,17,17,17,17,17,17,17,16,17,17,17,17]","151","960","484.5","false","20","20","black","1","false","1","1","1920","969","ArrowRight","staircase_motion","","","","",""
"","","","","","html-keyboard-response","60","409038","0.0-5.0-1.0-0.0-0.0-1.0-0.0-0.0-2.5","null","","null","<p style='font-size: 60px; color: red'>错误!</p>","","","","","","","","","","","","","","","","","","","","","","","","","","","","","","","","","","","","","","","","","","","","","","","",""
"","","","","","html-keyboard-response","61","410187","0.0-5.0-1.0-0.0-0.0-1.0-0.0-0.0-0.6","null","fixation","null","<p style='font-size: 48px; color: white'>+</p >","","","","","","","","","","","","","","","","","","","","","","","","","","","","","","","","","","","","","","","","","","","","","","","",""
"","","","","","rdk","62","413247","0.0-5.0-1.0-0.0-0.0-1.0-0.0-0.0-1.6","2417","motion_test","arrowleft","","true","[""ArrowLeft"",""ArrowRight""]","ArrowLeft","3000","true","1","100","180","0.11","0","3","1","-1","2","300","300","[""hsl(0, 50%, 50%)"",""hsl(225, 50%, 50%)""]","[""white""]","0","0","0","circle","black","3","2","2","16.724137931034484","[4,18,17,16,17,17,16,17,16,17,16,17,16,17,17,17,17,17,17,17,17,17,17,17,17,15,17,17,17,16,17,17,17,17,17,17,17,16,17,17,17,17,17,17,16,17,17,17,17,17,17,17,17,17,17,17,17,16,17,17,16,17,17,17,17,17,17,17,17,16,17,17,17,16,17,17,17,17,17,17,17,17,17,16,17,17,16,17,17,16,17,16,17,17,17,17,17,17,17,17,17,17,16,17,16,17,17,17,17,17,16,17,17,17,17,17,16,17,17,16,17,17,16,17,17,17,17,17,17,16,17,16,17,17,17,17,17,17,16,17,17,17,16,17,17]","145","960","484.5","false","20","20","black","1","false","1","1","1920","969","ArrowLeft","staircase_motion","","","","",""
"","","","","","html-keyboard-response","63","414405","0.0-5.0-1.0-0.0-0.0-1.0-0.0-0.0-2.6","null","","null","<p style='font-size: 60px; color: green'>正确!</p>","","","","","","","","","","","","","","","","","","","","","","","","","","","","","","","","","","","","","","","","","","","","","","","",""
"","","","","","html-keyboard-response","64","415553","0.0-5.0-1.0-0.0-0.0-1.0-0.0-0.0-0.7","null","fixation","null","<p style='font-size: 48px; color: white'>+</p >","","","","","","","","","","","","","","","","","","","","","","","","","","","","","","","","","","","","","","","","","","","","","","","",""
"","","","","","rdk","65","419202","0.0-5.0-1.0-0.0-0.0-1.0-0.0-0.0-1.7","-1","motion_test","","","false","[""ArrowLeft"",""ArrowRight""]","ArrowRight","3000","true","1","100","0","0.11","0","3","1","-1","2","300","300","[""hsl(0, 50%, 50%)"",""hsl(225, 50%, 50%)""]","[""white""]","0","0","0","circle","black","3","2","2","16.805555555555557","[8,12,17,18,16,17,17,17,16,17,17,17,17,17,17,17,16,17,17,17,17,17,17,17,17,17,17,17,16,17,17,17,17,16,17,17,17,17,17,17,17,17,17,18,16,17,17,17,17,17,17,16,17,17,17,17,17,17,16,18,17,16,17,17,17,17,17,17,17,17,17,17,16,17,17,17,17,17,17,17,17,17,17,16,17,17,16,17,17,16,18,16,17,17,17,17,17,17,17,17,17,16,17,17,17,17,17,18,16,17,17,16,17,17,17,16,17,17,17,16,17,17,17,17,17,17,17,17,17,17,17,17,17,17,17,17,17,17,17,17,17,17,17,17,17,16,17,17,17,17,17,17,15,17,17,17,17,16,17,17,17,17,15,18,16,17,17,17,17,18,16,17,17,17,16,17,17,17,17,17]","180","960","484.5","false","20","20","black","1","false","1","1","1920","969","ArrowRight","staircase_motion","","","","",""
"","","","","","html-keyboard-response","66","420355","0.0-5.0-1.0-0.0-0.0-1.0-0.0-0.0-2.7","null","","null","<p style='font-size: 60px; color: yellow'>太慢!</p>","","","","","","","","","","","","","","","","","","","","","","","","","","","","","","","","","","","","","","","","","","","","","","","",""
"","","","","","html-keyboard-response","67","421504","0.0-5.0-1.0-0.0-0.0-1.0-0.0-0.0-0.8","null","fixation","null","<p style='font-size: 48px; color: white'>+</p >","","","","","","","","","","","","","","","","","","","","","","","","","","","","","","","","","","","","","","","","","","","","","","","",""
"","","","","","rdk","68","424409","0.0-5.0-1.0-0.0-0.0-1.0-0.0-0.0-1.8","2261","motion_test","arrowleft","","true","[""ArrowLeft"",""ArrowRight""]","ArrowLeft","3000","true","1","100","180","0.11","0","3","1","-1","2","300","300","[""hsl(0, 50%, 50%)"",""hsl(225, 50%, 50%)""]","[""white""]","0","0","0","circle","black","3","2","2","16.852941176470587","[5,15,17,17,17,17,17,17,17,17,17,17,17,17,17,17,17,17,17,17,17,16,17,17,17,17,17,17,17,17,17,17,17,17,17,17,17,17,17,17,17,17,17,17,16,17,17,17,17,17,17,17,17,17,17,17,17,17,17,17,17,17,17,17,17,17,17,17,17,17,17,16,17,17,17,17,17,17,17,17,17,17,17,17,17,17,17,17,17,17,16,17,17,17,17,17,17,17,17,17,17,17,17,17,17,16,17,17,17,17,17,17,17,17,17,17,17,17,17,17,17,16,17,17,17,17,17,17,17,17,17,17,17,17,17,17]","136","960","484.5","false","20","20","black","1","false","1","1","1920","969","ArrowLeft","staircase_motion","","","","",""
"","","","","","html-keyboard-response","69","425555","0.0-5.0-1.0-0.0-0.0-1.0-0.0-0.0-2.8","null","","null","<p style='font-size: 60px; color: green'>正确!</p>","","","","","","","","","","","","","","","","","","","","","","","","","","","","","","","","","","","","","","","","","","","","","","","",""
"","","","","","html-keyboard-response","70","426705","0.0-5.0-1.0-0.0-0.0-1.0-0.0-0.0-0.9","null","fixation","null","<p style='font-size: 48px; color: white'>+</p >","","","","","","","","","","","","","","","","","","","","","","","","","","","","","","","","","","","","","","","","","","","","","","","",""
"","","","","","rdk","71","428791","0.0-5.0-1.0-0.0-0.0-1.0-0.0-0.0-1.9","1444","motion_test","arrowleft","","true","[""ArrowLeft"",""ArrowRight""]","ArrowLeft","3000","true","1","100","180","0.11","0","3","1","-1","2","300","300","[""hsl(0, 50%, 50%)"",""hsl(225, 50%, 50%)""]","[""white""]","0","0","0","circle","black","3","2","2","16.71264367816092","[4,17,17,17,17,17,17,17,17,17,17,17,17,17,17,17,17,17,16,17,17,17,16,17,17,17,16,17,17,17,16,17,15,17,17,17,17,17,17,17,17,18,16,17,16,17,17,17,17,17,17,17,17,16,17,17,16,17,16,17,17,17,17,17,17,17,17,17,17,17,16,17,17,17,17,17,17,17,17,17,16,17,17,17,17,17,17]","87","960","484.5","false","20","20","black","1","false","1","1","1920","969","ArrowLeft","staircase_motion","","","","",""
"","","","","","html-keyboard-response","72","429939","0.0-5.0-1.0-0.0-0.0-1.0-0.0-0.0-2.9","null","","null","<p style='font-size: 60px; color: green'>正确!</p>","","","","","","","","","","","","","","","","","","","","","","","","","","","","","","","","","","","","","","","","","","","","","","","",""
"","","","","","html-keyboard-response","73","431088","0.0-5.0-1.0-0.0-0.0-1.0-0.0-0.0-0.10","null","fixation","null","<p style='font-size: 48px; color: white'>+</p >","","","","","","","","","","","","","","","","","","","","","","","","","","","","","","","","","","","","","","","","","","","","","","","",""
"","","","","","rdk","74","433424","0.0-5.0-1.0-0.0-0.0-1.0-0.0-0.0-1.10","1695","motion_test","arrowright","","true","[""ArrowLeft"",""ArrowRight""]","ArrowRight","3000","true","1","100","0","0.11","0","3","1","-1","2","300","300","[""hsl(0, 50%, 50%)"",""hsl(225, 50%, 50%)""]","[""white""]","0","0","0","circle","black","3","2","2","16.647058823529413","[5,16,17,17,17,17,17,17,17,17,17,17,17,16,17,17,16,17,16,17,16,17,17,16,17,17,16,17,17,17,17,17,17,17,17,15,17,17,17,17,17,17,17,17,17,17,17,17,17,17,17,16,17,17,16,16,17,16,17,17,16,17,16,17,17,17,17,17,17,17,16,17,17,17,16,17,16,17,17,16,17,17,17,17,17,16,17,17,17,17,16,17,15,17,17,17,16,17,17,17,17,17]","102","960","484.5","false","20","20","black","1","false","1","1","1920","969","ArrowRight","staircase_motion","","","","",""
"","","","","","html-keyboard-response","75","434572","0.0-5.0-1.0-0.0-0.0-1.0-0.0-0.0-2.10","null","","null","<p style='font-size: 60px; color: green'>正确!</p>","","","","","","","","","","","","","","","","","","","","","","","","","","","","","","","","","","","","","","","","","","","","","","","",""
"","","","","","html-keyboard-response","76","435722","0.0-5.0-1.0-0.0-0.0-1.0-0.0-0.0-0.11","null","fixation","null","<p style='font-size: 48px; color: white'>+</p >","","","","","","","","","","","","","","","","","","","","","","","","","","","","","","","","","","","","","","","","","","","","","","","",""
"","","","","","rdk","77","438111","0.0-5.0-1.0-0.0-0.0-1.0-0.0-0.0-1.11","1748","motion_test","arrowright","","true","[""ArrowLeft"",""ArrowRight""]","ArrowRight","3000","true","1","100","0","0.11","0","3","1","-1","2","300","300","[""hsl(0, 50%, 50%)"",""hsl(225, 50%, 50%)""]","[""white""]","0","0","0","circle","black","3","2","2","16.723809523809525","[4,17,17,17,17,17,17,17,17,17,17,16,17,16,17,17,16,17,17,17,17,17,16,17,16,17,17,17,17,17,17,17,17,17,17,17,17,17,17,17,17,17,17,17,16,17,16,17,17,17,17,17,17,16,17,17,17,17,17,17,17,17,17,17,16,17,17,16,17,17,17,17,17,17,17,16,17,17,16,17,17,17,17,17,17,17,17,17,16,17,16,17,17,16,17,17,17,17,17,16,17,17,17,17,17]","105","960","484.5","false","20","20","black","1","false","1","1","1920","969","ArrowRight","staircase_motion","","","","",""
"","","","","","html-keyboard-response","78","439255","0.0-5.0-1.0-0.0-0.0-1.0-0.0-0.0-2.11","null","","null","<p style='font-size: 60px; color: green'>正确!</p>","","","","","","","","","","","","","","","","","","","","","","","","","","","","","","","","","","","","","","","","","","","","","","","",""
"","","","","","html-keyboard-response","79","441904","0.0-5.0-1.0-0.0-0.0-1.0-0.0-1.0","null","","null","<p style='font-size: 35px; color: white'>您的正确率为： 58% 。平均反应时为：1872毫秒。</p>","","","","","","","","","","","","","","","","","","","","","","","","","","","","","","","","","","","","","","","","","","","","","","","",""
"","","","","","html-keyboard-response","80","443054","0.0-5.0-1.0-0.0-0.0-2.0-0.0-0.0-0.0","null","fixation","null","<p style='font-size: 48px; color: white'>+</p >","","","","","","","","","","","","","","","","","","","","","","","","","","","","","","","","","","","","","","","","","","","","","","","",""
"","","","","","rdk","81","445873","0.0-5.0-1.0-0.0-0.0-2.0-0.0-0.0-1.0","2175","motion_test","arrowright","","true","[""ArrowLeft"",""ArrowRight""]","ArrowRight","3000","true","1","100","0","0.08","0","3","1","-1","2","300","300","[""hsl(0, 50%, 50%)"",""hsl(225, 50%, 50%)""]","[""white""]","0","0","0","circle","black","3","2","2","16.80916030534351","[3,16,17,17,17,17,17,17,16,17,17,17,17,24,8,17,17,17,17,17,17,17,17,17,17,17,17,17,17,17,16,17,17,17,17,17,17,17,17,17,17,17,17,17,17,17,17,17,17,17,17,17,17,17,17,17,17,17,17,17,16,16,17,17,17,17,17,17,17,17,17,16,17,17,17,17,17,17,17,17,17,17,17,17,17,17,17,17,17,17,17,17,17,16,17,17,17,17,17,17,16,17,17,17,17,17,17,17,17,17,17,17,17,17,17,17,17,16,17,17,17,17,17,17,17,17,17,17,17,17,17]","131","960","484.5","false","20","20","black","1","false","1","1","1920","969","ArrowRight","staircase_motion","","","","",""
"","","","","","html-keyboard-response","82","447023","0.0-5.0-1.0-0.0-0.0-2.0-0.0-0.0-2.0","null","","null","<p style='font-size: 60px; color: green'>正确!</p>","","","","","","","","","","","","","","","","","","","","","","","","","","","","","","","","","","","","","","","","","","","","","","","",""
"","","","","","html-keyboard-response","83","448170","0.0-5.0-1.0-0.0-0.0-2.0-0.0-0.0-0.1","null","fixation","null","<p style='font-size: 48px; color: white'>+</p >","","","","","","","","","","","","","","","","","","","","","","","","","","","","","","","","","","","","","","","","","","","","","","","",""
"","","","","","rdk","84","451106","0.0-5.0-1.0-0.0-0.0-2.0-0.0-0.0-1.1","2292","motion_test","arrowright","","false","[""ArrowLeft"",""ArrowRight""]","ArrowLeft","3000","true","1","100","180","0.08","0","3","1","-1","2","300","300","[""hsl(0, 50%, 50%)"",""hsl(225, 50%, 50%)""]","[""white""]","0","0","0","circle","black","3","2","2","16.847826086956523","[3,16,17,17,17,17,17,16,17,17,17,17,17,17,17,16,17,17,17,17,17,17,17,17,17,17,17,17,17,17,17,17,17,17,17,17,17,17,17,17,17,17,17,17,17,17,17,17,17,17,17,17,17,17,17,17,17,17,17,17,16,17,17,17,17,17,17,17,17,17,17,17,17,17,16,17,17,17,17,17,17,17,17,16,17,17,17,17,17,17,17,17,17,17,17,17,17,17,17,17,17,17,17,17,16,17,17,17,17,17,17,17,17,17,17,17,17,17,17,17,17,17,17,17,17,17,17,17,17,16,17,17,17,17,17,17,16,19]","138","960","484.5","false","20","20","black","1","false","1","1","1920","969","ArrowLeft","staircase_motion","","","","",""
"","","","","","html-keyboard-response","85","452256","0.0-5.0-1.0-0.0-0.0-2.0-0.0-0.0-2.1","null","","null","<p style='font-size: 60px; color: red'>错误!</p>","","","","","","","","","","","","","","","","","","","","","","","","","","","","","","","","","","","","","","","","","","","","","","","",""
"","","","","","html-keyboard-response","86","453403","0.0-5.0-1.0-0.0-0.0-2.0-0.0-0.0-0.2","null","fixation","null","<p style='font-size: 48px; color: white'>+</p >","","","","","","","","","","","","","","","","","","","","","","","","","","","","","","","","","","","","","","","","","","","","","","","",""
"","","","","","rdk","87","456551","0.0-5.0-1.0-0.0-0.0-2.0-0.0-0.0-1.2","2505","motion_test","arrowright","","false","[""ArrowLeft"",""ArrowRight""]","ArrowLeft","3000","true","1","100","180","0.08","0","3","1","-1","2","300","300","[""hsl(0, 50%, 50%)"",""hsl(225, 50%, 50%)""]","[""white""]","0","0","0","circle","black","3","2","2","16.713333333333335","[4,17,17,17,16,17,17,17,17,17,16,17,16,17,17,17,17,16,17,16,17,17,17,17,16,17,17,17,16,17,17,17,16,17,17,17,17,17,17,17,17,17,16,17,16,17,17,17,16,17,16,17,16,17,17,16,17,17,16,17,17,16,17,17,17,17,16,17,17,17,17,17,17,17,17,17,16,17,17,17,17,16,17,16,17,17,16,17,17,17,17,16,17,17,17,17,17,17,16,17,17,17,16,17,17,17,17,17,17,17,17,17,17,17,17,17,16,17,16,17,17,17,17,17,17,17,16,17,17,17,17,17,17,16,17,17,17,17,17,17,17,17,17,17,16,17,17,16,17,17]","150","960","484.5","false","20","20","black","1","false","1","1","1920","969","ArrowLeft","staircase_motion","","","","",""
"","","","","","html-keyboard-response","88","457704","0.0-5.0-1.0-0.0-0.0-2.0-0.0-0.0-2.2","null","","null","<p style='font-size: 60px; color: red'>错误!</p>","","","","","","","","","","","","","","","","","","","","","","","","","","","","","","","","","","","","","","","","","","","","","","","",""
"","","","","","html-keyboard-response","89","458854","0.0-5.0-1.0-0.0-0.0-2.0-0.0-0.0-0.3","null","fixation","null","<p style='font-size: 48px; color: white'>+</p >","","","","","","","","","","","","","","","","","","","","","","","","","","","","","","","","","","","","","","","","","","","","","","","",""
"","","","","","rdk","90","462504","0.0-5.0-1.0-0.0-0.0-2.0-0.0-0.0-1.3","-1","motion_test","","","false","[""ArrowLeft"",""ArrowRight""]","ArrowRight","3000","true","1","100","0","0.08","0","3","1","-1","2","300","300","[""hsl(0, 50%, 50%)"",""hsl(225, 50%, 50%)""]","[""white""]","0","0","0","circle","black","3","2","2","16.734806629834253","[4,17,17,16,17,17,16,17,17,16,17,17,17,17,17,17,16,17,17,17,17,17,17,17,17,17,17,16,17,17,17,17,17,17,17,16,17,16,17,17,17,16,17,17,16,17,17,17,17,16,17,17,16,17,17,17,17,17,16,17,17,17,17,17,17,17,16,16,17,17,17,17,16,17,17,17,17,17,17,17,17,17,17,17,17,17,16,17,17,17,17,17,17,24,8,17,17,17,17,17,16,17,16,17,17,16,17,16,17,17,17,17,17,17,17,17,17,17,17,17,16,17,17,17,17,17,17,17,17,16,17,17,17,17,17,16,17,17,16,17,17,17,17,17,17,17,16,17,16,17,17,17,15,17,17,17,16,17,17,17,17,17,17,17,17,17,16,17,17,17,17,17,17,15,17,17,17,17,17,16,17]","181","960","484.5","false","20","20","black","1","false","1","1","1920","969","ArrowRight","staircase_motion","","","","",""
"","","","","","html-keyboard-response","91","463656","0.0-5.0-1.0-0.0-0.0-2.0-0.0-0.0-2.3","null","","null","<p style='font-size: 60px; color: yellow'>太慢!</p>","","","","","","","","","","","","","","","","","","","","","","","","","","","","","","","","","","","","","","","","","","","","","","","",""
"","","","","","html-keyboard-response","92","464803","0.0-5.0-1.0-0.0-0.0-2.0-0.0-0.0-0.4","null","fixation","null","<p style='font-size: 48px; color: white'>+</p >","","","","","","","","","","","","","","","","","","","","","","","","","","","","","","","","","","","","","","","","","","","","","","","",""
"","","","","","rdk","93","467367","0.0-5.0-1.0-0.0-0.0-2.0-0.0-0.0-1.4","1919","motion_test","arrowleft","","true","[""ArrowLeft"",""ArrowRight""]","ArrowLeft","3000","true","1","100","180","0.08","0","3","1","-1","2","300","300","[""hsl(0, 50%, 50%)"",""hsl(225, 50%, 50%)""]","[""white""]","0","0","0","circle","black","3","2","2","16.808695652173913","[3,16,17,17,17,17,17,17,17,16,17,17,18,16,17,17,17,17,17,17,17,17,16,17,17,17,17,17,17,17,17,17,17,17,17,17,17,17,17,17,17,17,17,17,16,17,17,17,17,16,17,17,17,17,17,17,16,17,17,16,17,17,17,17,17,17,17,17,17,17,17,17,17,17,17,17,17,17,17,17,17,17,17,17,17,17,17,17,17,17,17,17,17,17,17,17,17,17,17,17,17,17,17,17,17,16,17,17,17,17,17,17,17,17,17]","115","960","484.5","false","20","20","black","1","false","1","1","1920","969","ArrowLeft","staircase_motion","","","","",""
"","","","","","html-keyboard-response","94","468523","0.0-5.0-1.0-0.0-0.0-2.0-0.0-0.0-2.4","null","","null","<p style='font-size: 60px; color: green'>正确!</p>","","","","","","","","","","","","","","","","","","","","","","","","","","","","","","","","","","","","","","","","","","","","","","","",""
"","","","","","html-keyboard-response","95","469671","0.0-5.0-1.0-0.0-0.0-2.0-0.0-0.0-0.5","null","fixation","null","<p style='font-size: 48px; color: white'>+</p >","","","","","","","","","","","","","","","","","","","","","","","","","","","","","","","","","","","","","","","","","","","","","","","",""
"","","","","","rdk","96","471735","0.0-5.0-1.0-0.0-0.0-2.0-0.0-0.0-1.5","1421","motion_test","arrowleft","","false","[""ArrowLeft"",""ArrowRight""]","ArrowRight","3000","true","1","100","0","0.08","0","3","1","-1","2","300","300","[""hsl(0, 50%, 50%)"",""hsl(225, 50%, 50%)""]","[""white""]","0","0","0","circle","black","3","2","2","16.764705882352942","[3,16,17,17,17,17,17,17,17,17,17,17,17,17,25,8,17,17,17,17,17,17,17,17,17,17,17,17,16,17,17,17,17,17,17,17,17,17,17,17,16,17,17,17,17,17,17,17,17,17,17,17,17,16,17,17,17,16,17,17,17,17,17,17,17,17,17,17,17,17,17,17,17,17,17,17,17,17,17,17,17,17,17,17,17]","85","960","484.5","false","20","20","black","1","false","1","1","1920","969","ArrowRight","staircase_motion","","","","",""
"","","","","","html-keyboard-response","97","472889","0.0-5.0-1.0-0.0-0.0-2.0-0.0-0.0-2.5","null","","null","<p style='font-size: 60px; color: red'>错误!</p>","","","","","","","","","","","","","","","","","","","","","","","","","","","","","","","","","","","","","","","","","","","","","","","",""
"","","","","","html-keyboard-response","98","474037","0.0-5.0-1.0-0.0-0.0-2.0-0.0-0.0-0.6","null","fixation","null","<p style='font-size: 48px; color: white'>+</p >","","","","","","","","","","","","","","","","","","","","","","","","","","","","","","","","","","","","","","","","","","","","","","","",""
"","","","","","rdk","99","476407","0.0-5.0-1.0-0.0-0.0-2.0-0.0-0.0-1.6","1728","motion_test","arrowleft","","true","[""ArrowLeft"",""ArrowRight""]","ArrowLeft","3000","true","1","100","180","0.08","0","3","1","-1","2","300","300","[""hsl(0, 50%, 50%)"",""hsl(225, 50%, 50%)""]","[""white""]","0","0","0","circle","black","3","2","2","16.673076923076923","[5,17,17,17,16,17,17,17,17,17,17,17,16,17,16,17,17,17,17,16,17,17,17,17,17,17,17,17,16,17,17,16,17,17,17,16,17,17,17,16,17,17,17,17,16,17,17,17,17,17,17,17,17,17,16,17,17,16,17,17,16,16,17,17,16,17,17,17,16,17,17,16,17,17,16,17,17,17,16,17,17,17,17,17,17,17,17,17,17,16,17,16,17,16,17,17,17,16,17,17,17,17,17,17]","104","960","484.5","false","20","20","black","1","false","1","1","1920","969","ArrowLeft","staircase_motion","","","","",""
"","","","","","html-keyboard-response","100","477554","0.0-5.0-1.0-0.0-0.0-2.0-0.0-0.0-2.6","null","","null","<p style='font-size: 60px; color: green'>正确!</p>","","","","","","","","","","","","","","","","","","","","","","","","","","","","","","","","","","","","","","","","","","","","","","","",""
"","","","","","html-keyboard-response","101","478705","0.0-5.0-1.0-0.0-0.0-2.0-0.0-0.0-0.7","null","fixation","null","<p style='font-size: 48px; color: white'>+</p >","","","","","","","","","","","","","","","","","","","","","","","","","","","","","","","","","","","","","","","","","","","","","","","",""
"","","","","","rdk","102","481722","0.0-5.0-1.0-0.0-0.0-2.0-0.0-0.0-1.7","2376","motion_test","arrowleft","","false","[""ArrowLeft"",""ArrowRight""]","ArrowRight","3000","true","1","100","0","0.08","0","3","1","-1","2","300","300","[""hsl(0, 50%, 50%)"",""hsl(225, 50%, 50%)""]","[""white""]","0","0","0","circle","black","3","2","2","16.727272727272727","[3,17,17,17,17,18,17,17,17,17,17,16,17,16,17,16,17,17,17,16,17,17,17,16,17,17,16,17,16,17,17,16,17,17,16,17,17,16,17,17,17,17,17,17,17,16,17,17,16,17,16,17,17,17,17,16,17,17,16,17,17,17,17,17,17,17,17,16,17,17,16,17,17,16,17,17,16,17,17,17,17,17,17,17,17,17,17,17,17,17,17,17,17,17,17,17,17,17,17,17,17,17,17,17,17,17,17,16,17,17,16,17,17,17,17,15,17,17,17,17,17,17,17,17,17,17,17,17,17,17,17,16,17,16,17,17,17,17,17,17,16,17,17]","143","960","484.5","false","20","20","black","1","false","1","1","1920","969","ArrowRight","staircase_motion","","","","",""
"","","","","","html-keyboard-response","103","482871","0.0-5.0-1.0-0.0-0.0-2.0-0.0-0.0-2.7","null","","null","<p style='font-size: 60px; color: red'>错误!</p>","","","","","","","","","","","","","","","","","","","","","","","","","","","","","","","","","","","","","","","","","","","","","","","",""
"","","","","","html-keyboard-response","104","484021","0.0-5.0-1.0-0.0-0.0-2.0-0.0-0.0-0.8","null","fixation","null","<p style='font-size: 48px; color: white'>+</p >","","","","","","","","","","","","","","","","","","","","","","","","","","","","","","","","","","","","","","","","","","","","","","","",""
"","","","","","rdk","105","486999","0.0-5.0-1.0-0.0-0.0-2.0-0.0-0.0-1.8","2335","motion_test","arrowleft","","true","[""ArrowLeft"",""ArrowRight""]","ArrowLeft","3000","true","1","100","180","0.08","0","3","1","-1","2","300","300","[""hsl(0, 50%, 50%)"",""hsl(225, 50%, 50%)""]","[""white""]","0","0","0","circle","black","3","2","2","16.728571428571428","[3,17,17,17,17,17,17,17,16,22,11,17,16,17,17,17,17,17,17,17,17,16,17,16,17,17,17,17,17,17,17,17,17,17,17,17,17,16,17,17,16,17,16,17,16,17,16,17,17,17,16,17,16,17,17,17,17,17,17,16,17,17,17,17,17,17,17,16,17,17,17,17,17,17,17,17,17,17,17,17,16,18,17,16,17,17,17,17,17,17,17,17,16,17,17,16,17,17,17,16,17,17,16,17,17,17,16,17,17,17,16,17,17,17,17,17,17,17,17,15,17,17,17,16,17,17,17,17,17,17,17,17,17,17,17,17,17,17,17,17]","140","960","484.5","false","20","20","black","1","false","1","1","1920","969","ArrowLeft","staircase_motion","","","","",""
"","","","","","html-keyboard-response","106","488156","0.0-5.0-1.0-0.0-0.0-2.0-0.0-0.0-2.8","null","","null","<p style='font-size: 60px; color: green'>正确!</p>","","","","","","","","","","","","","","","","","","","","","","","","","","","","","","","","","","","","","","","","","","","","","","","",""
"","","","","","html-keyboard-response","107","489304","0.0-5.0-1.0-0.0-0.0-2.0-0.0-0.0-0.9","null","fixation","null","<p style='font-size: 48px; color: white'>+</p >","","","","","","","","","","","","","","","","","","","","","","","","","","","","","","","","","","","","","","","","","","","","","","","",""
"","","","","","rdk","108","492824","0.0-5.0-1.0-0.0-0.0-2.0-0.0-0.0-1.9","2877","motion_test","arrowleft","","false","[""ArrowLeft"",""ArrowRight""]","ArrowRight","3000","true","1","100","0","0.08","0","3","1","-1","2","300","300","[""hsl(0, 50%, 50%)"",""hsl(225, 50%, 50%)""]","[""white""]","0","0","0","circle","black","3","2","2","16.86127167630058","[5,14,17,17,17,17,17,17,17,17,17,17,17,17,16,17,17,17,17,17,17,16,17,17,17,17,17,17,17,17,17,17,17,17,17,17,17,17,17,17,17,17,17,17,17,17,17,17,17,17,17,17,17,16,17,17,17,17,17,17,17,17,17,17,16,17,17,17,17,17,17,17,17,17,17,17,17,17,17,15,17,17,17,17,17,17,17,17,17,17,17,17,17,17,17,17,17,17,17,17,17,17,17,16,17,17,17,17,16,17,17,17,17,17,17,17,17,17,17,17,17,17,17,17,17,17,17,17,17,17,17,17,17,17,17,17,17,17,17,16,17,17,17,17,17,17,17,17,17,17,17,17,17,17,17,17,17,17,17,17,17,17,17,17,17,17,17,17,17,17,17,17,17]","173","960","484.5","false","20","20","black","1","false","1","1","1920","969","ArrowRight","staircase_motion","","","","",""
"","","","","","html-keyboard-response","109","493973","0.0-5.0-1.0-0.0-0.0-2.0-0.0-0.0-2.9","null","","null","<p style='font-size: 60px; color: red'>错误!</p>","","","","","","","","","","","","","","","","","","","","","","","","","","","","","","","","","","","","","","","","","","","","","","","",""
"","","","","","html-keyboard-response","110","495121","0.0-5.0-1.0-0.0-0.0-2.0-0.0-0.0-0.10","null","fixation","null","<p style='font-size: 48px; color: white'>+</p >","","","","","","","","","","","","","","","","","","","","","","","","","","","","","","","","","","","","","","","","","","","","","","","",""
"","","","","","rdk","111","498672","0.0-5.0-1.0-0.0-0.0-2.0-0.0-0.0-1.10","2909","motion_test","arrowright","","false","[""ArrowLeft"",""ArrowRight""]","ArrowLeft","3000","true","1","100","180","0.08","0","3","1","-1","2","300","300","[""hsl(0, 50%, 50%)"",""hsl(225, 50%, 50%)""]","[""white""]","0","0","0","circle","black","3","2","2","16.76","[4,17,17,17,17,17,16,18,16,17,17,17,16,17,17,16,17,17,17,17,17,17,17,16,17,17,16,17,17,17,17,17,16,17,17,17,17,17,17,17,17,17,17,17,16,17,17,17,17,16,17,17,17,17,17,17,16,17,17,17,15,17,17,17,17,17,17,17,17,16,17,17,17,17,17,17,17,17,17,17,17,17,17,17,17,17,17,17,16,17,17,17,16,17,17,16,17,17,17,17,16,17,17,15,17,17,17,17,17,17,17,17,17,17,17,16,17,17,17,17,16,17,17,17,16,17,17,17,17,17,17,16,17,17,17,17,17,17,16,17,17,17,17,17,17,16,16,17,17,17,17,17,16,17,17,17,17,16,17,17,17,17,17,17,17,17,17,17,16,17,17,16,17,17,17]","175","960","484.5","false","20","20","black","1","false","1","1","1920","969","ArrowLeft","staircase_motion","","","","",""
"","","","","","html-keyboard-response","112","499822","0.0-5.0-1.0-0.0-0.0-2.0-0.0-0.0-2.10","null","","null","<p style='font-size: 60px; color: red'>错误!</p>","","","","","","","","","","","","","","","","","","","","","","","","","","","","","","","","","","","","","","","","","","","","","","","",""
"","","","","","html-keyboard-response","113","500971","0.0-5.0-1.0-0.0-0.0-2.0-0.0-0.0-0.11","null","fixation","null","<p style='font-size: 48px; color: white'>+</p >","","","","","","","","","","","","","","","","","","","","","","","","","","","","","","","","","","","","","","","","","","","","","","","",""
"","","","","","rdk","114","504619","0.0-5.0-1.0-0.0-0.0-2.0-0.0-0.0-1.11","-1","motion_test","","","false","[""ArrowLeft"",""ArrowRight""]","ArrowRight","3000","true","1","100","0","0.08","0","3","1","-1","2","300","300","[""hsl(0, 50%, 50%)"",""hsl(225, 50%, 50%)""]","[""white""]","0","0","0","circle","black","3","2","2","16.86111111111111","[3,16,17,17,17,17,17,17,17,17,17,17,17,17,17,17,17,17,17,17,17,17,17,17,17,17,17,17,16,17,17,17,17,17,17,17,17,17,17,17,17,17,17,17,16,17,17,17,17,17,17,17,17,16,17,17,17,17,17,17,16,17,17,17,17,17,17,17,17,16,17,17,17,17,17,17,17,17,16,17,17,17,17,17,17,17,17,17,17,17,17,17,17,17,17,17,17,17,17,17,17,17,17,17,17,17,17,17,17,17,17,17,17,17,17,17,17,17,17,17,16,17,17,17,16,17,17,17,17,17,17,17,17,17,17,17,17,17,17,17,17,17,17,17,17,16,17,17,17,17,17,17,17,17,17,17,17,17,17,17,17,17,17,17,17,17,17,16,17,17,17,17,17,17,17,17,17,17,17,17]","180","960","484.5","false","20","20","black","1","false","1","1","1920","969","ArrowRight","staircase_motion","","","","",""
"","","","","","html-keyboard-response","115","505772","0.0-5.0-1.0-0.0-0.0-2.0-0.0-0.0-2.11","null","","null","<p style='font-size: 60px; color: yellow'>太慢!</p>","","","","","","","","","","","","","","","","","","","","","","","","","","","","","","","","","","","","","","","","","","","","","","","",""
"","","","","","html-keyboard-response","116","508422","0.0-5.0-1.0-0.0-0.0-2.0-0.0-1.0","null","","null","<p style='font-size: 35px; color: white'>您的正确率为： 33% 。平均反应时为：1878毫秒。</p>","","","","","","","","","","","","","","","","","","","","","","","","","","","","","","","","","","","","","","","","","","","","","","","",""
"","","","","","html-keyboard-response","117","509572","0.0-5.0-1.0-0.0-0.0-3.0-0.0-0.0-0.0","null","fixation","null","<p style='font-size: 48px; color: white'>+</p >","","","","","","","","","","","","","","","","","","","","","","","","","","","","","","","","","","","","","","","","","","","","","","","",""
"","","","","","rdk","118","511373","0.0-5.0-1.0-0.0-0.0-3.0-0.0-0.0-1.0","1161","motion_test","arrowleft","","false","[""ArrowLeft"",""ArrowRight""]","ArrowRight","3000","true","1","100","0","0.03","0","3","1","-1","2","300","300","[""hsl(0, 50%, 50%)"",""hsl(225, 50%, 50%)""]","[""white""]","0","0","0","circle","black","3","2","2","16.571428571428573","[4,16,17,17,17,17,17,17,17,16,17,17,16,17,17,17,17,17,17,16,17,17,17,17,17,16,17,17,17,16,17,17,16,17,16,17,17,17,16,17,17,17,17,17,17,16,17,16,17,17,17,17,17,16,17,17,16,17,17,17,16,17,17,15,17,17,16,17,17,17]","70","960","484.5","false","20","20","black","1","false","1","1","1920","969","ArrowRight","staircase_motion","","","","",""
"","","","","","html-keyboard-response","119","512523","0.0-5.0-1.0-0.0-0.0-3.0-0.0-0.0-2.0","null","","null","<p style='font-size: 60px; color: red'>错误!</p>","","","","","","","","","","","","","","","","","","","","","","","","","","","","","","","","","","","","","","","","","","","","","","","",""
"","","","","","html-keyboard-response","120","513671","0.0-5.0-1.0-0.0-0.0-3.0-0.0-0.0-0.1","null","fixation","null","<p style='font-size: 48px; color: white'>+</p >","","","","","","","","","","","","","","","","","","","","","","","","","","","","","","","","","","","","","","","","","","","","","","","",""
"","","","","","rdk","121","515830","0.0-5.0-1.0-0.0-0.0-3.0-0.0-0.0-1.1","1517","motion_test","arrowleft","","true","[""ArrowLeft"",""ArrowRight""]","ArrowLeft","3000","true","1","100","180","0.03","0","3","1","-1","2","300","300","[""hsl(0, 50%, 50%)"",""hsl(225, 50%, 50%)""]","[""white""]","0","0","0","circle","black","3","2","2","16.63736263736264","[3,17,17,16,17,17,17,17,17,17,17,17,17,17,17,17,17,16,17,17,17,17,16,17,17,17,16,17,17,16,17,17,17,16,17,17,17,17,17,17,16,17,17,17,16,17,17,16,17,16,17,16,17,17,17,16,17,17,17,17,17,16,17,17,17,17,17,17,17,17,17,16,17,16,17,16,17,17,17,17,16,17,17,17,16,17,17,16,17,17,17]","91","960","484.5","false","20","20","black","1","false","1","1","1920","969","ArrowLeft","staircase_motion","","","","",""
"","","","","","html-keyboard-response","122","516987","0.0-5.0-1.0-0.0-0.0-3.0-0.0-0.0-2.1","null","","null","<p style='font-size: 60px; color: green'>正确!</p>","","","","","","","","","","","","","","","","","","","","","","","","","","","","","","","","","","","","","","","","","","","","","","","",""
"","","","","","html-keyboard-response","123","518137","0.0-5.0-1.0-0.0-0.0-3.0-0.0-0.0-0.2","null","fixation","null","<p style='font-size: 48px; color: white'>+</p >","","","","","","","","","","","","","","","","","","","","","","","","","","","","","","","","","","","","","","","","","","","","","","","",""
"","","","","","rdk","124","520815","0.0-5.0-1.0-0.0-0.0-3.0-0.0-0.0-1.2","2035","motion_test","arrowleft","","false","[""ArrowLeft"",""ArrowRight""]","ArrowRight","3000","true","1","100","0","0.03","0","3","1","-1","2","300","300","[""hsl(0, 50%, 50%)"",""hsl(225, 50%, 50%)""]","[""white""]","0","0","0","circle","black","3","2","2","16.770491803278688","[6,13,18,17,17,16,17,17,17,17,17,17,17,16,17,17,17,17,17,16,17,17,17,17,17,16,17,17,17,17,17,17,17,17,17,17,17,17,16,17,16,17,17,17,17,17,16,17,17,17,17,17,17,17,17,17,17,17,17,17,17,17,17,17,17,17,17,16,17,17,17,17,15,17,18,16,17,17,17,17,17,17,17,17,16,17,17,17,16,17,17,17,17,17,16,17,17,17,17,17,17,17,17,17,17,17,17,17,17,17,17,17,17,17,17,16,17,17,17,17,17,17]","122","960","484.5","false","20","20","black","1","false","1","1","1920","969","ArrowRight","staircase_motion","","","","",""
"","","","","","html-keyboard-response","125","521970","0.0-5.0-1.0-0.0-0.0-3.0-0.0-0.0-2.2","null","","null","<p style='font-size: 60px; color: red'>错误!</p>","","","","","","","","","","","","","","","","","","","","","","","","","","","","","","","","","","","","","","","","","","","","","","","",""
"","","","","","html-keyboard-response","126","523121","0.0-5.0-1.0-0.0-0.0-3.0-0.0-0.0-0.3","null","fixation","null","<p style='font-size: 48px; color: white'>+</p >","","","","","","","","","","","","","","","","","","","","","","","","","","","","","","","","","","","","","","","","","","","","","","","",""
"","","","","","rdk","127","525335","0.0-5.0-1.0-0.0-0.0-3.0-0.0-0.0-1.3","1571","motion_test","arrowleft","","true","[""ArrowLeft"",""ArrowRight""]","ArrowLeft","3000","true","1","100","180","0.03","0","3","1","-1","2","300","300","[""hsl(0, 50%, 50%)"",""hsl(225, 50%, 50%)""]","[""white""]","0","0","0","circle","black","3","2","2","16.77659574468085","[3,16,17,17,17,17,17,17,17,17,17,17,17,17,17,17,17,17,17,17,17,17,17,17,17,17,17,17,17,17,16,17,17,17,17,16,16,17,17,16,17,17,17,17,17,17,17,17,17,17,17,17,17,17,17,17,17,17,17,17,17,17,17,17,17,17,17,17,17,17,17,16,17,16,17,17,17,17,17,17,17,17,17,17,17,17,17,17,17,17,17,17,17,17]","94","960","484.5","false","20","20","black","1","false","1","1","1920","969","ArrowLeft","staircase_motion","","","","",""
"","","","","","html-keyboard-response","128","526488","0.0-5.0-1.0-0.0-0.0-3.0-0.0-0.0-2.3","null","","null","<p style='font-size: 60px; color: green'>正确!</p>","","","","","","","","","","","","","","","","","","","","","","","","","","","","","","","","","","","","","","","","","","","","","","","",""
"","","","","","html-keyboard-response","129","527637","0.0-5.0-1.0-0.0-0.0-3.0-0.0-0.0-0.4","null","fixation","null","<p style='font-size: 48px; color: white'>+</p >","","","","","","","","","","","","","","","","","","","","","","","","","","","","","","","","","","","","","","","","","","","","","","","",""
"","","","","","rdk","130","529688","0.0-5.0-1.0-0.0-0.0-3.0-0.0-0.0-1.4","1409","motion_test","arrowleft","","false","[""ArrowLeft"",""ArrowRight""]","ArrowRight","3000","true","1","100","0","0.03","0","3","1","-1","2","300","300","[""hsl(0, 50%, 50%)"",""hsl(225, 50%, 50%)""]","[""white""]","0","0","0","circle","black","3","2","2","16.658823529411766","[4,17,17,17,17,17,17,17,17,17,16,17,17,17,17,17,17,17,17,16,17,17,17,17,17,17,17,17,17,17,16,17,16,17,17,16,17,16,17,16,17,17,17,17,17,16,17,17,17,17,17,17,16,17,17,16,17,16,17,16,17,17,17,17,17,17,16,17,17,17,17,17,17,17,17,17,16,17,17,17,17,16,17,16,17]","85","960","484.5","false","20","20","black","1","false","1","1","1920","969","ArrowRight","staircase_motion","","","","",""
"","","","","","html-keyboard-response","131","530838","0.0-5.0-1.0-0.0-0.0-3.0-0.0-0.0-2.4","null","","null","<p style='font-size: 60px; color: red'>错误!</p>","","","","","","","","","","","","","","","","","","","","","","","","","","","","","","","","","","","","","","","","","","","","","","","",""
"","","","","","html-keyboard-response","132","531988","0.0-5.0-1.0-0.0-0.0-3.0-0.0-0.0-0.5","null","fixation","null","<p style='font-size: 48px; color: white'>+</p >","","","","","","","","","","","","","","","","","","","","","","","","","","","","","","","","","","","","","","","","","","","","","","","",""
"","","","","","rdk","133","534192","0.0-5.0-1.0-0.0-0.0-3.0-0.0-0.0-1.5","1562","motion_test","arrowleft","","false","[""ArrowLeft"",""ArrowRight""]","ArrowRight","3000","true","1","100","0","0.03","0","3","1","-1","2","300","300","[""hsl(0, 50%, 50%)"",""hsl(225, 50%, 50%)""]","[""white""]","0","0","0","circle","black","3","2","2","16.69148936170213","[2,17,17,17,17,16,17,17,17,17,16,17,17,17,17,17,17,17,17,17,17,16,17,17,17,17,16,17,17,17,16,17,17,17,17,17,17,17,17,17,17,17,17,17,16,17,17,17,17,16,17,17,17,16,17,17,16,17,16,17,17,16,17,17,17,17,17,17,17,17,17,17,17,17,17,16,17,17,17,17,17,17,17,16,17,17,17,16,17,17,17,17,17,17]","94","960","484.5","false","20","20","black","1","false","1","1","1920","969","ArrowRight","staircase_motion","","","","",""
"","","","","","html-keyboard-response","134","535339","0.0-5.0-1.0-0.0-0.0-3.0-0.0-0.0-2.5","null","","null","<p style='font-size: 60px; color: red'>错误!</p>","","","","","","","","","","","","","","","","","","","","","","","","","","","","","","","","","","","","","","","","","","","","","","","",""
"","","","","","html-keyboard-response","135","536488","0.0-5.0-1.0-0.0-0.0-3.0-0.0-0.0-0.6","null","fixation","null","<p style='font-size: 48px; color: white'>+</p >","","","","","","","","","","","","","","","","","","","","","","","","","","","","","","","","","","","","","","","","","","","","","","","",""
"","","","","","rdk","136","539479","0.0-5.0-1.0-0.0-0.0-3.0-0.0-0.0-1.6","2348","motion_test","arrowleft","","true","[""ArrowLeft"",""ArrowRight""]","ArrowLeft","3000","true","1","100","180","0.03","0","3","1","-1","2","300","300","[""hsl(0, 50%, 50%)"",""hsl(225, 50%, 50%)""]","[""white""]","0","0","0","circle","black","3","2","2","16.872340425531913","[3,16,17,17,17,17,17,17,17,17,17,17,17,17,17,17,17,17,17,17,17,17,17,17,17,17,17,17,17,17,17,16,17,17,17,17,17,17,17,17,17,17,16,17,17,17,17,17,17,17,17,17,17,17,17,17,17,17,17,17,17,17,17,17,17,17,17,17,17,17,17,17,17,17,17,17,17,17,17,17,17,17,17,17,17,17,17,17,16,17,17,17,17,17,17,17,17,17,17,17,17,17,17,17,17,17,17,17,17,17,17,17,17,17,17,17,17,17,17,17,17,17,17,17,17,17,17,17,17,17,17,17,17,17,17,17,17,17,17,17,17]","141","960","484.5","false","20","20","black","1","false","1","1","1920","969","ArrowLeft","staircase_motion","","","","",""
"","","","","","html-keyboard-response","137","540622","0.0-5.0-1.0-0.0-0.0-3.0-0.0-0.0-2.6","null","","null","<p style='font-size: 60px; color: green'>正确!</p>","","","","","","","","","","","","","","","","","","","","","","","","","","","","","","","","","","","","","","","","","","","","","","","",""
"","","","","","html-keyboard-response","138","541772","0.0-5.0-1.0-0.0-0.0-3.0-0.0-0.0-0.7","null","fixation","null","<p style='font-size: 48px; color: white'>+</p >","","","","","","","","","","","","","","","","","","","","","","","","","","","","","","","","","","","","","","","","","","","","","","","",""
"","","","","","rdk","139","544150","0.0-5.0-1.0-0.0-0.0-3.0-0.0-0.0-1.7","1737","motion_test","arrowright","","false","[""ArrowLeft"",""ArrowRight""]","ArrowLeft","3000","true","1","100","180","0.03","0","3","1","-1","2","300","300","[""hsl(0, 50%, 50%)"",""hsl(225, 50%, 50%)""]","[""white""]","0","0","0","circle","black","3","2","2","16.634615384615383","[3,17,16,17,17,16,17,17,17,17,17,17,16,17,16,17,17,16,17,17,17,17,16,17,16,17,17,17,16,17,17,17,17,17,17,17,16,17,17,17,16,17,17,17,16,17,17,24,8,16,17,17,17,17,18,17,17,17,17,17,17,16,17,17,16,17,17,17,16,17,17,17,17,16,17,17,16,17,17,17,17,16,17,17,17,17,17,16,17,17,17,16,17,17,17,16,17,16,17,17,17,17,17,16]","104","960","484.5","false","20","20","black","1","false","1","1","1920","969","ArrowLeft","staircase_motion","","","","",""
"","","","","","html-keyboard-response","140","545305","0.0-5.0-1.0-0.0-0.0-3.0-0.0-0.0-2.7","null","","null","<p style='font-size: 60px; color: red'>错误!</p>","","","","","","","","","","","","","","","","","","","","","","","","","","","","","","","","","","","","","","","","","","","","","","","",""
"","","","","","html-keyboard-response","141","546454","0.0-5.0-1.0-0.0-0.0-3.0-0.0-0.0-0.8","null","fixation","null","<p style='font-size: 48px; color: white'>+</p >","","","","","","","","","","","","","","","","","","","","","","","","","","","","","","","","","","","","","","","","","","","","","","","",""
"","","","","","rdk","142","548688","0.0-5.0-1.0-0.0-0.0-3.0-0.0-0.0-1.8","1592","motion_test","arrowleft","","true","[""ArrowLeft"",""ArrowRight""]","ArrowLeft","3000","true","1","100","180","0.03","0","3","1","-1","2","300","300","[""hsl(0, 50%, 50%)"",""hsl(225, 50%, 50%)""]","[""white""]","0","0","0","circle","black","3","2","2","16.71875","[4,18,16,17,17,17,17,16,17,17,17,17,17,17,17,17,17,17,17,17,17,17,17,17,17,17,17,16,17,16,16,17,17,17,18,17,17,17,17,16,17,16,17,17,16,17,16,17,17,17,16,17,16,17,17,17,17,17,17,17,17,17,17,17,17,17,17,17,17,17,16,17,16,17,17,17,16,17,17,17,17,17,17,17,17,17,17,17,17,17,17,17,16,17,16,17]","96","960","484.5","false","20","20","black","1","false","1","1","1920","969","ArrowLeft","staircase_motion","","","","",""
"","","","","","html-keyboard-response","143","549838","0.0-5.0-1.0-0.0-0.0-3.0-0.0-0.0-2.8","null","","null","<p style='font-size: 60px; color: green'>正确!</p>","","","","","","","","","","","","","","","","","","","","","","","","","","","","","","","","","","","","","","","","","","","","","","","",""
"","","","","","html-keyboard-response","144","550987","0.0-5.0-1.0-0.0-0.0-3.0-0.0-0.0-0.9","null","fixation","null","<p style='font-size: 48px; color: white'>+</p >","","","","","","","","","","","","","","","","","","","","","","","","","","","","","","","","","","","","","","","","","","","","","","","",""
"","","","","","rdk","145","553567","0.0-5.0-1.0-0.0-0.0-3.0-0.0-0.0-1.9","1936","motion_test","arrowright","","true","[""ArrowLeft"",""ArrowRight""]","ArrowRight","3000","true","1","100","0","0.03","0","3","1","-1","2","300","300","[""hsl(0, 50%, 50%)"",""hsl(225, 50%, 50%)""]","[""white""]","0","0","0","circle","black","3","2","2","16.71551724137931","[3,17,17,17,17,17,17,17,17,17,17,17,17,17,16,17,17,16,17,17,17,17,16,17,17,17,16,17,17,17,17,17,17,16,17,17,16,17,17,17,16,17,17,17,17,17,17,17,17,17,17,17,17,17,17,17,17,16,17,16,17,17,16,17,17,16,17,16,17,17,17,17,17,17,17,16,17,17,17,17,17,17,17,16,17,16,17,17,17,17,17,17,17,17,17,17,17,16,17,17,17,17,17,17,17,17,17,17,17,17,16,17,16,17,16,17]","116","960","484.5","false","20","20","black","1","false","1","1","1920","969","ArrowRight","staircase_motion","","","","",""
"","","","","","html-keyboard-response","146","554720","0.0-5.0-1.0-0.0-0.0-3.0-0.0-0.0-2.9","null","","null","<p style='font-size: 60px; color: green'>正确!</p>","","","","","","","","","","","","","","","","","","","","","","","","","","","","","","","","","","","","","","","","","","","","","","","",""
"","","","","","html-keyboard-response","147","555870","0.0-5.0-1.0-0.0-0.0-3.0-0.0-0.0-0.10","null","fixation","null","<p style='font-size: 48px; color: white'>+</p >","","","","","","","","","","","","","","","","","","","","","","","","","","","","","","","","","","","","","","","","","","","","","","","",""
"","","","","","rdk","148","558456","0.0-5.0-1.0-0.0-0.0-3.0-0.0-0.0-1.10","1942","motion_test","arrowright","","false","[""ArrowLeft"",""ArrowRight""]","ArrowLeft","3000","true","1","100","180","0.03","0","3","1","-1","2","300","300","[""hsl(0, 50%, 50%)"",""hsl(225, 50%, 50%)""]","[""white""]","0","0","0","circle","black","3","2","2","16.743589743589745","[3,18,16,17,17,17,17,17,17,17,17,17,17,17,17,17,17,17,17,17,17,17,17,16,17,17,17,17,17,17,17,17,17,17,17,17,17,17,16,17,16,17,17,17,17,17,17,17,17,17,17,17,16,17,17,17,17,17,17,17,17,17,17,17,16,17,17,17,17,16,16,17,17,16,17,17,17,16,17,17,17,16,17,17,17,16,17,17,17,17,17,17,17,17,17,16,17,17,17,17,17,17,17,16,17,16,17,17,17,17,17,17,16,17,17,17,16]","117","960","484.5","false","20","20","black","1","false","1","1","1920","969","ArrowLeft","staircase_motion","","","","",""
"","","","","","html-keyboard-response","149","559607","0.0-5.0-1.0-0.0-0.0-3.0-0.0-0.0-2.10","null","","null","<p style='font-size: 60px; color: red'>错误!</p>","","","","","","","","","","","","","","","","","","","","","","","","","","","","","","","","","","","","","","","","","","","","","","","",""
"","","","","","html-keyboard-response","150","560753","0.0-5.0-1.0-0.0-0.0-3.0-0.0-0.0-0.11","null","fixation","null","<p style='font-size: 48px; color: white'>+</p >","","","","","","","","","","","","","","","","","","","","","","","","","","","","","","","","","","","","","","","","","","","","","","","",""
"","","","","","rdk","151","563906","0.0-5.0-1.0-0.0-0.0-3.0-0.0-0.0-1.11","2510","motion_test","arrowright","","true","[""ArrowLeft"",""ArrowRight""]","ArrowRight","3000","true","1","100","0","0.03","0","3","1","-1","2","300","300","[""hsl(0, 50%, 50%)"",""hsl(225, 50%, 50%)""]","[""white""]","0","0","0","circle","black","3","2","2","16.741721854304636","[5,18,16,17,17,17,16,17,17,17,17,17,17,17,17,17,17,16,17,17,17,16,17,17,16,17,17,17,17,17,17,17,16,17,17,17,17,16,17,17,17,16,17,17,16,17,17,17,17,17,16,17,17,17,17,17,17,16,17,17,17,16,17,17,17,17,17,17,17,17,16,17,17,17,17,17,17,16,17,17,15,17,17,17,17,17,17,17,16,17,17,17,17,16,17,17,16,17,16,17,17,17,16,17,17,16,17,17,17,17,17,17,17,17,17,17,15,17,17,17,17,17,16,17,17,17,17,17,17,17,17,16,17,17,17,17,17,17,16,17,16,17,17,17,17,17,17,16,17,17,18]","151","960","484.5","false","20","20","black","1","false","1","1","1920","969","ArrowRight","staircase_motion","","","","",""
"","","","","","html-keyboard-response","152","565055","0.0-5.0-1.0-0.0-0.0-3.0-0.0-0.0-2.11","null","","null","<p style='font-size: 60px; color: green'>正确!</p>","","","","","","","","","","","","","","","","","","","","","","","","","","","","","","","","","","","","","","","","","","","","","","","",""
"","","","","","html-keyboard-response","153","567705","0.0-5.0-1.0-0.0-0.0-3.0-0.0-1.0","null","","null","<p style='font-size: 35px; color: white'>您的正确率为： 50% 。平均反应时为：1777毫秒。</p>","","","","","","","","","","","","","","","","","","","","","","","","","","","","","","","","","","","","","","","","","","","","","","","",""
"","","","","","html-keyboard-response","154","568855","0.0-5.0-1.0-0.0-0.0-4.0-0.0-0.0-0.0","null","fixation","null","<p style='font-size: 48px; color: white'>+</p >","","","","","","","","","","","","","","","","","","","","","","","","","","","","","","","","","","","","","","","","","","","","","","","",""
"","","","","","rdk","155","571358","0.0-5.0-1.0-0.0-0.0-4.0-0.0-0.0-1.0","1861","motion_test","arrowleft","","true","[""ArrowLeft"",""ArrowRight""]","ArrowLeft","3000","true","1","100","180","0.12","0","3","1","-1","2","300","300","[""hsl(0, 50%, 50%)"",""hsl(225, 50%, 50%)""]","[""white""]","0","0","0","circle","black","3","2","2","16.669642857142858","[3,18,16,17,17,17,17,17,17,17,16,17,17,17,16,17,17,17,16,17,17,17,17,16,17,17,17,17,17,17,17,17,17,17,17,16,17,17,16,17,16,17,17,17,17,16,17,15,17,17,17,16,17,17,17,16,17,17,16,17,17,17,16,17,17,17,17,17,17,17,17,16,17,17,17,16,16,17,17,16,17,17,17,17,17,17,17,17,17,17,17,17,17,17,17,16,17,17,17,17,16,17,17,17,17,17,15,17,16,17,17,17]","112","960","484.5","false","20","20","black","1","false","1","1","1920","969","ArrowLeft","staircase_motion","","","","",""
"","","","","","html-keyboard-response","156","572505","0.0-5.0-1.0-0.0-0.0-4.0-0.0-0.0-2.0","null","","null","<p style='font-size: 60px; color: green'>正确!</p>","","","","","","","","","","","","","","","","","","","","","","","","","","","","","","","","","","","","","","","","","","","","","","","",""
"","","","","","html-keyboard-response","157","573654","0.0-5.0-1.0-0.0-0.0-4.0-0.0-0.0-0.1","null","fixation","null","<p style='font-size: 48px; color: white'>+</p >","","","","","","","","","","","","","","","","","","","","","","","","","","","","","","","","","","","","","","","","","","","","","","","",""
"","","","","","rdk","158","575999","0.0-5.0-1.0-0.0-0.0-4.0-0.0-0.0-1.1","1701","motion_test","arrowleft","","false","[""ArrowLeft"",""ArrowRight""]","ArrowRight","3000","true","1","100","0","0.12","0","3","1","-1","2","300","300","[""hsl(0, 50%, 50%)"",""hsl(225, 50%, 50%)""]","[""white""]","0","0","0","circle","black","3","2","2","16.813725490196077","[4,15,17,17,17,17,17,17,17,17,17,17,17,17,17,17,17,17,17,17,17,17,17,17,17,17,17,17,17,17,17,17,17,17,17,17,17,17,17,17,17,17,17,17,16,17,17,17,17,17,17,17,17,17,17,17,17,17,17,17,17,17,17,17,17,17,17,17,17,17,17,24,9,17,17,17,17,17,18,16,17,17,17,17,17,17,17,17,17,17,17,17,17,17,16,17,17,17,17,17,16,17]","102","960","484.5","false","20","20","black","1","false","1","1","1920","969","ArrowRight","staircase_motion","","","","",""
"","","","","","html-keyboard-response","159","577156","0.0-5.0-1.0-0.0-0.0-4.0-0.0-0.0-2.1","null","","null","<p style='font-size: 60px; color: red'>错误!</p>","","","","","","","","","","","","","","","","","","","","","","","","","","","","","","","","","","","","","","","","","","","","","","","",""
"","","","","","html-keyboard-response","160","578304","0.0-5.0-1.0-0.0-0.0-4.0-0.0-0.0-0.2","null","fixation","null","<p style='font-size: 48px; color: white'>+</p >","","","","","","","","","","","","","","","","","","","","","","","","","","","","","","","","","","","","","","","","","","","","","","","",""
"","","","","","rdk","161","581672","0.0-5.0-1.0-0.0-0.0-4.0-0.0-0.0-1.2","2724","motion_test","arrowright","","true","[""ArrowLeft"",""ArrowRight""]","ArrowRight","3000","true","1","100","0","0.12","0","3","1","-1","2","300","300","[""hsl(0, 50%, 50%)"",""hsl(225, 50%, 50%)""]","[""white""]","0","0","0","circle","black","3","2","2","16.75","[2,18,16,16,17,17,17,17,17,17,16,17,17,17,17,17,17,17,16,17,17,17,17,17,17,17,17,17,17,17,17,17,17,17,17,17,17,17,16,17,17,17,17,17,17,17,17,17,17,17,17,17,16,18,17,17,17,16,17,17,17,17,17,17,17,17,17,17,17,15,18,16,17,16,17,17,17,17,16,17,17,17,17,17,16,16,18,16,17,17,17,17,17,15,17,16,17,17,17,18,15,17,17,17,17,17,17,17,16,18,16,17,16,17,17,16,17,17,17,17,17,17,17,17,16,17,17,17,17,16,17,17,16,17,17,17,17,17,17,16,16,17,18,15,17,17,17,17,17,17,17,17,17,17,17,16,17,17,17,17,17,17,17,16]","164","960","484.5","false","20","20","black","1","false","1","1","1920","969","ArrowRight","staircase_motion","","","","",""
"","","","","","html-keyboard-response","162","582823","0.0-5.0-1.0-0.0-0.0-4.0-0.0-0.0-2.2","null","","null","<p style='font-size: 60px; color: green'>正确!</p>","","","","","","","","","","","","","","","","","","","","","","","","","","","","","","","","","","","","","","","","","","","","","","","",""
"","","","","","html-keyboard-response","163","583970","0.0-5.0-1.0-0.0-0.0-4.0-0.0-0.0-0.3","null","fixation","null","<p style='font-size: 48px; color: white'>+</p >","","","","","","","","","","","","","","","","","","","","","","","","","","","","","","","","","","","","","","","","","","","","","","","",""
"","","","","","rdk","164","586159","0.0-5.0-1.0-0.0-0.0-4.0-0.0-0.0-1.3","1546","motion_test","arrowleft","","true","[""ArrowLeft"",""ArrowRight""]","ArrowLeft","3000","true","1","100","180","0.12","0","3","1","-1","2","300","300","[""hsl(0, 50%, 50%)"",""hsl(225, 50%, 50%)""]","[""white""]","0","0","0","circle","black","3","2","2","16.72043010752688","[5,17,17,16,17,16,17,17,17,17,17,16,17,17,17,17,17,17,18,16,16,17,17,17,17,17,17,17,17,17,17,17,17,17,17,17,17,17,16,17,17,17,17,17,16,17,17,17,17,17,16,17,17,17,17,17,16,17,17,17,17,17,16,17,17,17,17,17,16,17,17,17,17,17,16,17,17,16,17,17,17,16,17,17,17,17,17,16,17,17,17,17,17]","93","960","484.5","false","20","20","black","1","false","1","1","1920","969","ArrowLeft","staircase_motion","","","","",""
"","","","","","html-keyboard-response","165","587306","0.0-5.0-1.0-0.0-0.0-4.0-0.0-0.0-2.3","null","","null","<p style='font-size: 60px; color: green'>正确!</p>","","","","","","","","","","","","","","","","","","","","","","","","","","","","","","","","","","","","","","","","","","","","","","","",""
"","","","","","html-keyboard-response","166","588454","0.0-5.0-1.0-0.0-0.0-4.0-0.0-0.0-0.4","null","fixation","null","<p style='font-size: 48px; color: white'>+</p >","","","","","","","","","","","","","","","","","","","","","","","","","","","","","","","","","","","","","","","","","","","","","","","",""
"","","","","","rdk","167","590343","0.0-5.0-1.0-0.0-0.0-4.0-0.0-0.0-1.4","1245","motion_test","arrowleft","","true","[""ArrowLeft"",""ArrowRight""]","ArrowLeft","3000","true","1","100","180","0.12","0","3","1","-1","2","300","300","[""hsl(0, 50%, 50%)"",""hsl(225, 50%, 50%)""]","[""white""]","0","0","0","circle","black","3","2","2","16.76","[3,16,17,17,17,17,17,17,16,17,17,17,17,17,17,17,17,17,17,17,17,17,17,17,17,17,17,17,17,17,17,17,17,17,17,17,17,17,17,17,16,17,17,17,17,17,17,17,17,17,17,17,17,17,17,17,17,17,17,17,17,17,17,17,17,17,16,17,17,17,17,17,17,17,17]","75","960","484.5","false","20","20","black","1","false","1","1","1920","969","ArrowLeft","staircase_motion","","","","",""
"","","","","","html-keyboard-response","168","591488","0.0-5.0-1.0-0.0-0.0-4.0-0.0-0.0-2.4","null","","null","<p style='font-size: 60px; color: green'>正确!</p>","","","","","","","","","","","","","","","","","","","","","","","","","","","","","","","","","","","","","","","","","","","","","","","",""
"","","","","","html-keyboard-response","169","592640","0.0-5.0-1.0-0.0-0.0-4.0-0.0-0.0-0.5","null","fixation","null","<p style='font-size: 48px; color: white'>+</p >","","","","","","","","","","","","","","","","","","","","","","","","","","","","","","","","","","","","","","","","","","","","","","","",""
"","","","","","rdk","170","594535","0.0-5.0-1.0-0.0-0.0-4.0-0.0-0.0-1.5","1254","motion_test","arrowleft","","true","[""ArrowLeft"",""ArrowRight""]","ArrowLeft","3000","true","1","100","180","0.12","0","3","1","-1","2","300","300","[""hsl(0, 50%, 50%)"",""hsl(225, 50%, 50%)""]","[""white""]","0","0","0","circle","black","3","2","2","16.746666666666666","[3,16,17,17,17,17,17,17,17,16,17,17,17,17,17,17,17,17,17,16,17,17,17,17,17,17,17,17,17,17,17,17,17,17,17,17,17,17,17,17,17,17,17,17,16,17,17,17,17,17,17,17,17,17,17,17,17,17,17,17,17,17,17,17,17,17,17,17,17,17,17,17,17,17,16]","75","960","484.5","false","20","20","black","1","false","1","1","1920","969","ArrowLeft","staircase_motion","","","","",""
"","","","","","html-keyboard-response","171","595688","0.0-5.0-1.0-0.0-0.0-4.0-0.0-0.0-2.5","null","","null","<p style='font-size: 60px; color: green'>正确!</p>","","","","","","","","","","","","","","","","","","","","","","","","","","","","","","","","","","","","","","","","","","","","","","","",""
"","","","","","html-keyboard-response","172","596837","0.0-5.0-1.0-0.0-0.0-4.0-0.0-0.0-0.6","null","fixation","null","<p style='font-size: 48px; color: white'>+</p >","","","","","","","","","","","","","","","","","","","","","","","","","","","","","","","","","","","","","","","","","","","","","","","",""
"","","","","","rdk","173","598334","0.0-5.0-1.0-0.0-0.0-4.0-0.0-0.0-1.6","853","motion_test","arrowright","","true","[""ArrowLeft"",""ArrowRight""]","ArrowRight","3000","true","1","100","0","0.12","0","3","1","-1","2","300","300","[""hsl(0, 50%, 50%)"",""hsl(225, 50%, 50%)""]","[""white""]","0","0","0","circle","black","3","2","2","16.627450980392158","[3,17,17,17,17,16,17,17,17,17,17,17,17,17,17,17,17,17,17,16,17,17,17,17,17,17,17,16,17,17,17,17,17,17,17,17,17,17,17,17,17,17,17,17,16,17,17,17,16,17,17]","51","960","484.5","false","20","20","black","1","false","1","1","1920","969","ArrowRight","staircase_motion","","","","",""
"","","","","","html-keyboard-response","174","599489","0.0-5.0-1.0-0.0-0.0-4.0-0.0-0.0-2.6","null","","null","<p style='font-size: 60px; color: green'>正确!</p>","","","","","","","","","","","","","","","","","","","","","","","","","","","","","","","","","","","","","","","","","","","","","","","",""
"","","","","","html-keyboard-response","175","600640","0.0-5.0-1.0-0.0-0.0-4.0-0.0-0.0-0.7","null","fixation","null","<p style='font-size: 48px; color: white'>+</p >","","","","","","","","","","","","","","","","","","","","","","","","","","","","","","","","","","","","","","","","","","","","","","","",""
"","","","","","rdk","176","602367","0.0-5.0-1.0-0.0-0.0-4.0-0.0-0.0-1.7","1087","motion_test","arrowleft","","false","[""ArrowLeft"",""ArrowRight""]","ArrowRight","3000","true","1","100","0","0.12","0","3","1","-1","2","300","300","[""hsl(0, 50%, 50%)"",""hsl(225, 50%, 50%)""]","[""white""]","0","0","0","circle","black","3","2","2","16.661538461538463","[5,17,17,17,17,17,16,17,17,17,17,17,17,17,17,17,17,17,16,17,17,17,17,16,17,16,17,17,16,17,16,17,17,17,17,17,17,17,16,16,17,17,17,17,17,17,17,17,17,17,17,17,17,17,17,17,17,16,17,17,17,17,16,17,17]","65","960","484.5","false","20","20","black","1","false","1","1","1920","969","ArrowRight","staircase_motion","","","","",""
"","","","","","html-keyboard-response","177","603521","0.0-5.0-1.0-0.0-0.0-4.0-0.0-0.0-2.7","null","","null","<p style='font-size: 60px; color: red'>错误!</p>","","","","","","","","","","","","","","","","","","","","","","","","","","","","","","","","","","","","","","","","","","","","","","","",""
"","","","","","html-keyboard-response","178","604671","0.0-5.0-1.0-0.0-0.0-4.0-0.0-0.0-0.8","null","fixation","null","<p style='font-size: 48px; color: white'>+</p >","","","","","","","","","","","","","","","","","","","","","","","","","","","","","","","","","","","","","","","","","","","","","","","",""
"","","","","","rdk","179","607615","0.0-5.0-1.0-0.0-0.0-4.0-0.0-0.0-1.8","2300","motion_test","arrowleft","","false","[""ArrowLeft"",""ArrowRight""]","ArrowRight","3000","true","1","100","0","0.12","0","3","1","-1","2","300","300","[""hsl(0, 50%, 50%)"",""hsl(225, 50%, 50%)""]","[""white""]","0","0","0","circle","black","3","2","2","16.753623188405797","[8,11,18,16,18,16,17,17,17,17,17,17,17,17,17,17,17,17,16,17,17,17,17,17,17,17,17,17,16,17,17,17,17,16,17,17,17,17,17,17,17,17,16,17,17,17,17,17,16,17,16,17,16,17,16,18,16,17,17,16,17,17,17,16,18,16,17,17,17,17,17,17,17,17,17,17,16,18,16,17,16,19,15,17,17,17,18,16,17,17,17,17,16,18,16,17,17,17,17,17,17,16,17,17,17,17,17,17,18,16,17,17,17,16,18,16,17,17,17,17,17,16,17,17,17,17,17,17,16,17,18,15,18,15,18,16,17,17]","138","960","484.5","false","20","20","black","1","false","1","1","1920","969","ArrowRight","staircase_motion","","","","",""
"","","","","","html-keyboard-response","180","608773","0.0-5.0-1.0-0.0-0.0-4.0-0.0-0.0-2.8","null","","null","<p style='font-size: 60px; color: red'>错误!</p>","","","","","","","","","","","","","","","","","","","","","","","","","","","","","","","","","","","","","","","","","","","","","","","",""
"","","","","","html-keyboard-response","181","609921","0.0-5.0-1.0-0.0-0.0-4.0-0.0-0.0-0.9","null","fixation","null","<p style='font-size: 48px; color: white'>+</p >","","","","","","","","","","","","","","","","","","","","","","","","","","","","","","","","","","","","","","","","","","","","","","","",""
"","","","","","rdk","182","613570","0.0-5.0-1.0-0.0-0.0-4.0-0.0-0.0-1.9","-1","motion_test","","","false","[""ArrowLeft"",""ArrowRight""]","ArrowLeft","3000","true","1","100","180","0.12","0","3","1","-1","2","300","300","[""hsl(0, 50%, 50%)"",""hsl(225, 50%, 50%)""]","[""white""]","0","0","0","circle","black","3","2","2","16.733333333333334","[3,17,17,17,17,17,18,16,17,17,17,16,17,16,17,17,17,17,16,17,17,17,17,17,16,17,17,17,16,17,17,16,17,17,16,17,16,17,16,17,17,16,15,17,16,17,17,17,17,17,17,17,17,17,17,16,16,17,17,17,17,17,17,17,17,17,17,16,17,17,17,17,17,17,16,17,17,17,17,17,17,17,17,15,17,17,17,17,17,17,17,17,17,17,17,17,17,17,17,16,17,17,16,17,17,16,17,17,17,16,17,17,16,17,16,17,17,16,17,17,17,16,17,17,16,17,17,17,17,17,16,17,17,16,17,17,16,17,17,17,16,17,17,17,16,17,17,17,17,16,17,17,17,17,17,17,17,17,17,17,17,17,17,17,17,17,17,17,17,17,17,17,17,17,17,17,17,17,17,17]","180","960","484.5","false","20","20","black","1","false","1","1","1920","969","ArrowLeft","staircase_motion","","","","",""
"","","","","","html-keyboard-response","183","614720","0.0-5.0-1.0-0.0-0.0-4.0-0.0-0.0-2.9","null","","null","<p style='font-size: 60px; color: yellow'>太慢!</p>","","","","","","","","","","","","","","","","","","","","","","","","","","","","","","","","","","","","","","","","","","","","","","","",""
"","","","","","html-keyboard-response","184","615871","0.0-5.0-1.0-0.0-0.0-4.0-0.0-0.0-0.10","null","fixation","null","<p style='font-size: 48px; color: white'>+</p >","","","","","","","","","","","","","","","","","","","","","","","","","","","","","","","","","","","","","","","","","","","","","","","",""
"","","","","","rdk","185","618056","0.0-5.0-1.0-0.0-0.0-4.0-0.0-0.0-1.10","1543","motion_test","arrowleft","","true","[""ArrowLeft"",""ArrowRight""]","ArrowLeft","3000","true","1","100","180","0.12","0","3","1","-1","2","300","300","[""hsl(0, 50%, 50%)"",""hsl(225, 50%, 50%)""]","[""white""]","0","0","0","circle","black","3","2","2","16.70967741935484","[4,16,17,17,17,17,17,17,17,17,17,17,17,16,17,17,16,17,17,16,17,16,17,17,17,16,17,17,17,17,17,17,17,17,17,17,17,17,17,17,17,16,17,17,17,17,16,17,17,17,17,17,25,8,16,17,17,17,17,17,17,17,17,16,17,17,17,17,16,17,17,17,17,17,17,17,17,17,17,17,16,17,17,17,17,17,17,17,16,17,17,17,17]","93","960","484.5","false","20","20","black","1","false","1","1","1920","969","ArrowLeft","staircase_motion","","","","",""
"","","","","","html-keyboard-response","186","619204","0.0-5.0-1.0-0.0-0.0-4.0-0.0-0.0-2.10","null","","null","<p style='font-size: 60px; color: green'>正确!</p>","","","","","","","","","","","","","","","","","","","","","","","","","","","","","","","","","","","","","","","","","","","","","","","",""
"","","","","","html-keyboard-response","187","620353","0.0-5.0-1.0-0.0-0.0-4.0-0.0-0.0-0.11","null","fixation","null","<p style='font-size: 48px; color: white'>+</p >","","","","","","","","","","","","","","","","","","","","","","","","","","","","","","","","","","","","","","","","","","","","","","","",""
"","","","","","rdk","188","622567","0.0-5.0-1.0-0.0-0.0-4.0-0.0-0.0-1.11","1570","motion_test","arrowright","","true","[""ArrowLeft"",""ArrowRight""]","ArrowRight","3000","true","1","100","0","0.12","0","3","1","-1","2","300","300","[""hsl(0, 50%, 50%)"",""hsl(225, 50%, 50%)""]","[""white""]","0","0","0","circle","black","3","2","2","16.77659574468085","[5,15,17,16,17,17,17,17,17,17,17,17,17,17,17,17,15,17,17,17,17,17,17,17,17,17,17,17,17,17,17,17,17,17,17,17,17,17,17,17,17,17,17,17,16,17,17,17,17,16,17,17,17,17,17,17,17,17,17,17,17,17,17,17,17,17,17,17,17,17,17,17,17,17,17,17,17,17,16,17,17,17,17,16,17,17,17,17,17,17,17,17,17,17]","94","960","484.5","false","20","20","black","1","false","1","1","1920","969","ArrowRight","staircase_motion","","","","",""
"","","","","","html-keyboard-response","189","623722","0.0-5.0-1.0-0.0-0.0-4.0-0.0-0.0-2.11","null","","null","<p style='font-size: 60px; color: green'>正确!</p>","","","","","","","","","","","","","","","","","","","","","","","","","","","","","","","","","","","","","","","","","","","","","","","",""
"","","","","","html-keyboard-response","190","626370","0.0-5.0-1.0-0.0-0.0-4.0-0.0-1.0","null","","null","<p style='font-size: 35px; color: white'>您的正确率为： 67% 。平均反应时为：1474毫秒。</p>","","","","","","","","","","","","","","","","","","","","","","","","","","","","","","","","","","","","","","","","","","","","","","","",""
"","","","","","html-keyboard-response","191","627521","0.0-5.0-1.0-0.0-0.0-5.0-0.0-0.0-0.0","null","fixation","null","<p style='font-size: 48px; color: white'>+</p >","","","","","","","","","","","","","","","","","","","","","","","","","","","","","","","","","","","","","","","","","","","","","","","",""
"","","","","","rdk","192","629176","0.0-5.0-1.0-0.0-0.0-5.0-0.0-0.0-1.0","1013","motion_test","arrowleft","","true","[""ArrowLeft"",""ArrowRight""]","ArrowLeft","3000","true","1","100","180","0.1","0","3","1","-1","2","300","300","[""hsl(0, 50%, 50%)"",""hsl(225, 50%, 50%)""]","[""white""]","0","0","0","circle","black","3","2","2","16.65573770491803","[4,17,17,17,17,17,17,17,17,17,17,17,17,17,17,17,17,16,17,17,17,16,17,16,17,17,17,16,17,17,17,17,17,17,17,16,17,17,17,16,17,17,17,17,17,17,17,17,17,16,17,17,17,17,17,17,17,16,17,17,17]","61","960","484.5","false","20","20","black","1","false","1","1","1920","969","ArrowLeft","staircase_motion","","","","",""
"","","","","","html-keyboard-response","193","630320","0.0-5.0-1.0-0.0-0.0-5.0-0.0-0.0-2.0","null","","null","<p style='font-size: 60px; color: green'>正确!</p>","","","","","","","","","","","","","","","","","","","","","","","","","","","","","","","","","","","","","","","","","","","","","","","",""
"","","","","","html-keyboard-response","194","631470","0.0-5.0-1.0-0.0-0.0-5.0-0.0-0.0-0.1","null","fixation","null","<p style='font-size: 48px; color: white'>+</p >","","","","","","","","","","","","","","","","","","","","","","","","","","","","","","","","","","","","","","","","","","","","","","","",""
"","","","","","rdk","195","633306","0.0-5.0-1.0-0.0-0.0-5.0-0.0-0.0-1.1","1191","motion_test","arrowleft","","true","[""ArrowLeft"",""ArrowRight""]","ArrowLeft","3000","true","1","100","180","0.1","0","3","1","-1","2","300","300","[""hsl(0, 50%, 50%)"",""hsl(225, 50%, 50%)""]","[""white""]","0","0","0","circle","black","3","2","2","16.73611111111111","[3,16,17,17,17,17,17,17,17,17,17,17,16,17,17,17,17,17,17,16,17,17,17,16,17,17,17,17,17,17,17,17,17,17,17,17,17,17,17,17,17,17,17,17,16,17,17,17,17,17,17,17,17,17,17,17,17,17,17,17,17,17,17,17,17,17,16,17,17,17,17,18]","72","960","484.5","false","20","20","black","1","false","1","1","1920","969","ArrowLeft","staircase_motion","","","","",""
"","","","","","html-keyboard-response","196","634457","0.0-5.0-1.0-0.0-0.0-5.0-0.0-0.0-2.1","null","","null","<p style='font-size: 60px; color: green'>正确!</p>","","","","","","","","","","","","","","","","","","","","","","","","","","","","","","","","","","","","","","","","","","","","","","","",""
"","","","","","html-keyboard-response","197","635606","0.0-5.0-1.0-0.0-0.0-5.0-0.0-0.0-0.2","null","fixation","null","<p style='font-size: 48px; color: white'>+</p >","","","","","","","","","","","","","","","","","","","","","","","","","","","","","","","","","","","","","","","","","","","","","","","",""
"","","","","","rdk","198","638182","0.0-5.0-1.0-0.0-0.0-5.0-0.0-0.0-1.2","1935","motion_test","arrowright","","true","[""ArrowLeft"",""ArrowRight""]","ArrowRight","3000","true","1","100","0","0.1","0","3","1","-1","2","300","300","[""hsl(0, 50%, 50%)"",""hsl(225, 50%, 50%)""]","[""white""]","0","0","0","circle","black","3","2","2","16.71551724137931","[6,14,18,16,17,17,17,17,17,17,17,17,17,17,17,17,17,17,17,17,17,17,17,17,17,17,17,17,17,17,17,17,17,17,17,16,17,17,17,17,17,17,17,15,18,16,17,17,17,17,17,16,17,15,18,16,16,18,16,17,17,17,17,16,18,15,17,16,17,17,17,16,18,15,17,17,17,17,17,16,17,17,17,17,17,17,17,17,17,17,17,17,16,17,17,17,17,16,17,17,16,17,16,17,17,17,17,16,17,16,17,17,17,18,15,18]","116","960","484.5","false","20","20","black","1","false","1","1","1920","969","ArrowRight","staircase_motion","","","","",""
"","","","","","html-keyboard-response","199","639338","0.0-5.0-1.0-0.0-0.0-5.0-0.0-0.0-2.2","null","","null","<p style='font-size: 60px; color: green'>正确!</p>","","","","","","","","","","","","","","","","","","","","","","","","","","","","","","","","","","","","","","","","","","","","","","","",""
"","","","","","html-keyboard-response","200","640487","0.0-5.0-1.0-0.0-0.0-5.0-0.0-0.0-0.3","null","fixation","null","<p style='font-size: 48px; color: white'>+</p >","","","","","","","","","","","","","","","","","","","","","","","","","","","","","","","","","","","","","","","","","","","","","","","",""
"","","","","","rdk","201","642625","0.0-5.0-1.0-0.0-0.0-5.0-0.0-0.0-1.3","1496","motion_test","arrowleft","","false","[""ArrowLeft"",""ArrowRight""]","ArrowRight","3000","true","1","100","0","0.1","0","3","1","-1","2","300","300","[""hsl(0, 50%, 50%)"",""hsl(225, 50%, 50%)""]","[""white""]","0","0","0","circle","black","3","2","2","16.633333333333333","[4,17,17,17,17,17,17,16,15,17,16,17,16,17,17,17,17,17,16,17,17,17,17,17,17,17,17,17,17,17,17,17,17,17,17,17,16,17,16,17,17,16,17,17,16,17,17,17,17,16,17,17,17,16,17,17,17,16,17,17,17,17,16,17,17,17,17,17,16,17,16,17,16,17,18,16,17,17,17,16,17,17,17,16,17,17,17,16,17,17]","90","960","484.5","false","20","20","black","1","false","1","1","1920","969","ArrowRight","staircase_motion","","","","",""
"","","","","","html-keyboard-response","202","643771","0.0-5.0-1.0-0.0-0.0-5.0-0.0-0.0-2.3","null","","null","<p style='font-size: 60px; color: red'>错误!</p>","","","","","","","","","","","","","","","","","","","","","","","","","","","","","","","","","","","","","","","","","","","","","","","",""
"","","","","","html-keyboard-response","203","644922","0.0-5.0-1.0-0.0-0.0-5.0-0.0-0.0-0.4","null","fixation","null","<p style='font-size: 48px; color: white'>+</p >","","","","","","","","","","","","","","","","","","","","","","","","","","","","","","","","","","","","","","","","","","","","","","","",""
"","","","","","rdk","204","647279","0.0-5.0-1.0-0.0-0.0-5.0-0.0-0.0-1.4","1715","motion_test","arrowleft","","false","[""ArrowLeft"",""ArrowRight""]","ArrowRight","3000","true","1","100","0","0.1","0","3","1","-1","2","300","300","[""hsl(0, 50%, 50%)"",""hsl(225, 50%, 50%)""]","[""white""]","0","0","0","circle","black","3","2","2","16.78640776699029","[3,17,17,17,17,17,17,17,16,17,17,17,17,17,17,17,17,16,17,17,17,16,17,17,17,17,17,17,17,17,17,17,17,17,17,17,17,17,17,17,17,16,17,17,16,17,17,17,17,17,17,17,17,17,17,17,17,17,17,17,17,17,17,17,17,17,17,16,17,17,17,17,17,17,17,17,17,17,17,17,17,17,17,17,17,17,17,17,17,17,17,17,17,16,17,16,17,17,17,17,17,17,17]","103","960","484.5","false","20","20","black","1","false","1","1","1920","969","ArrowRight","staircase_motion","","","","",""
"","","","","","html-keyboard-response","205","648421","0.0-5.0-1.0-0.0-0.0-5.0-0.0-0.0-2.4","null","","null","<p style='font-size: 60px; color: red'>错误!</p>","","","","","","","","","","","","","","","","","","","","","","","","","","","","","","","","","","","","","","","","","","","","","","","",""
"","","","","","html-keyboard-response","206","649571","0.0-5.0-1.0-0.0-0.0-5.0-0.0-0.0-0.5","null","fixation","null","<p style='font-size: 48px; color: white'>+</p >","","","","","","","","","","","","","","","","","","","","","","","","","","","","","","","","","","","","","","","","","","","","","","","",""
