"success","timeout","failed_images","failed_audio","failed_video","trial_type","trial_index","time_elapsed","internal_node_id","rt","part","response","stimulus","correct","choices","correct_choice","trial_duration","response_ends_trial","number_of_apertures","number_of_dots","coherent_direction","coherence","opposite_coherence","dot_radius","dot_side_length","dot_life","move_distance","aperture_width","aperture_height","dot_color","dot_color_final","color_change_delay","target_color_proportion","motion_change_delay","dot_shape","background_color","RDK_type","aperture_type","reinsert_type","frame_rate","frame_rate_array","number_of_frames","aperture_center_x","aperture_center_y","fixation_cross","fixation_cross_width","fixation_cross_height","fixation_cross_color","fixation_cross_thickness","border","border_thickness","border_color","canvas_width","canvas_height","correct_response","data_label","task","difficulty","isMatch","association","label"
"true","false","[]","[]","[]","preload","0","6","0.0-0.0","","","","","","","","","","","","","","","","","","","","","","","","","","","","","","","","","","","","","","","","","","","","","","","","","","","",""
"true","","","","","fullscreen","1","1544670","0.0-1.0","1543239","fullScreen","","","","","","","","","","","","","","","","","","","","","","","","","","","","","","","","","","","","","","","","","","","","","","","","","",""
"","","","","","survey","2","1556332","0.0-2.0","11191","survey","{""sex"":""女"",""age"":24,""hands"":""右"",""color_blindness"":""都不是""}","","","","","","","","","","","","","","","","","","","","","","","","","","","","","","","","","","","","","","","","","","","","","","","","",""
"","","","","","survey-text","3","1563735","0.0-3.0","6957","color_test","{""Q0"":""be""}","","","","","","","","","","","","","","","","","","","","","","","","","","","","","","","","","","","","","","","","","","","","","","","","",""
"","","","","","html-keyboard-response","4","1566048","0.0-4.0","1888","instruction_beginning"," ","
      <div style=""text-align: left; color: white"">
        <h3 style=""text-align: center; font-size: 30px; margin: 0;"">欢迎参与本实验</h3>
          <p>为充分保障您的权利，请确保您已经知晓并同意《参与实验同意书》以及《数据公开知情同意书》，</p>
          <p>如果您未见过上述内容，请咨询实验员 ，</p>
          <p>如果您选择继续实验，则表示您已经清楚两份知情同意书的内容并同意 。</p>
          <p>在整个实验中，您需要完成两项任务，具体的任务要求会在后面说明 ，</p>
          <p>请按空格键进入实验</p >
      </div>","","","","","","","","","","","","","","","","","","","","","","","","","","","","","","","","","","","","","","","","","","","","","","","",""
"","","","","","html-keyboard-response","5","1591615","0.0-5.0-0.0","25142","instruction_getThreshold"," ","
        <div style=""text-align: left; color: white; padding: 10px""> 
          <h3 style=""text-align: center; font-size: 30px; margin: 10px"">欢迎进入实验！</h3>
          <p>在正式开始前，我们将通过一个快速测试为您打造专属的难度水平。<p>
          <p>接下来，屏幕上会呈现一些运动的圆点，其中一定比例的点为 <span style=""color: hsl(0, 50%, 50%)"">红色</span> ，其余为 <span style=""color: hsl(225, 50%, 50%)"">蓝色</span>，</p>
          <p>您需要在3秒内判断 <span style=""font-weight: bold"">散点图的整体颜色（即大多数点的颜色）是红色还是蓝色 </span>：</p >
          <ul>
            <li>整体为 <span style=""color: hsl(0, 50%, 50%)"">红色</span>，请按键盘 <span style=""color: hsl(0, 50%, 50%)"">""D"" 键</span></li>
            <li>整体为 <span style=""color: hsl(225, 50%, 50%)"">蓝色</span>，请按键盘 <span style=""color: hsl(225, 50%, 50%)"">""k"" 键</span> </li>
          </ul>
          <p>如有疑问请向主试咨询，没有则按下空格键开始</p>
        </div>","","","","","","","","","","","","","","","","","","","","","","","","","","","","","","","","","","","","","","","","","","","","","","","",""
"","","","","","html-keyboard-response","6","1592549","0.0-5.0-1.0-1.0-0.0-0.0-0.0-0.0-0.0","null","fixation","null","<p style='font-size: 48px; color: white'>+</p >","","","","","","","","","","","","","","","","","","","","","","","","","","","","","","","","","","","","","","","","","","","","","","","",""
"","","","","","rdk","7","1595981","0.0-5.0-1.0-1.0-0.0-0.0-0.0-0.0-1.0","-1","color_test","","","false","[""d"",""k""]","k","3000","true","1","100","0","0","0","3","1","-1","2","300","300","[""hsl(0, 50%, 50%)"",""hsl(225, 50%, 50%)""]","[""hsl(225, 50%, 50%)"",""hsl(0, 50%, 50%)""]","0.5","0.58","0","circle","black","3","2","2","16.822222222222223","[1,16,16,16,17,17,17,17,18,16,17,17,17,17,16,17,16,17,17,17,16,18,16,17,16,17,17,17,17,17,17,17,17,17,17,17,17,17,16,17,17,17,17,17,17,17,17,17,17,17,17,17,17,17,17,17,17,17,17,17,17,17,17,17,17,16,17,17,17,17,17,17,17,17,17,17,17,17,17,17,17,17,17,17,17,17,17,17,17,17,17,17,17,17,17,16,17,17,17,17,16,18,16,17,17,16,17,17,17,17,16,17,17,17,17,17,17,17,17,17,17,17,17,17,17,17,17,17,17,17,17,17,17,17,16,17,17,17,17,17,17,17,17,17,17,16,17,17,17,17,17,16,17,17,17,17,17,17,17,17,17,17,17,17,17,17,17,17,17,17,17,17,17,17,17,17,17,17,17,17]","180","960","482","false","20","20","black","1","false","1","1","1920","964","k","staircase_color","","","","",""
"","","","","","html-keyboard-response","8","1596917","0.0-5.0-1.0-1.0-0.0-0.0-0.0-0.0-2.0","null","","null","<p style='font-size: 60px; color: yellow'>太慢!</p>","","","","","","","","","","","","","","","","","","","","","","","","","","","","","","","","","","","","","","","","","","","","","","","",""
"","","","","","html-keyboard-response","9","1597850","0.0-5.0-1.0-1.0-0.0-0.0-0.0-0.0-0.1","null","fixation","null","<p style='font-size: 48px; color: white'>+</p >","","","","","","","","","","","","","","","","","","","","","","","","","","","","","","","","","","","","","","","","","","","","","","","",""
"","","","","","rdk","10","1599576","0.0-5.0-1.0-1.0-0.0-0.0-0.0-0.0-1.1","1302","color_test","d","","true","[""d"",""k""]","d","3000","true","1","100","0","0","0","3","1","-1","2","300","300","[""hsl(0, 50%, 50%)"",""hsl(225, 50%, 50%)""]","[""hsl(0, 50%, 50%)"",""hsl(225, 50%, 50%)""]","0.5","0.58","0","circle","black","3","2","2","16.71794871794872","[5,17,17,17,17,18,17,17,17,16,17,16,17,17,17,17,18,17,17,17,17,17,17,17,17,17,17,17,17,17,17,17,16,17,17,16,17,17,17,17,17,17,17,17,17,17,17,17,17,17,17,17,16,17,17,16,17,16,17,16,17,17,17,17,16,17,17,17,16,17,17,17,17,16,17,16,17,17]","78","960","482","false","20","20","black","1","false","1","1","1920","964","d","staircase_color","","","","",""
"","","","","","html-keyboard-response","11","1600499","0.0-5.0-1.0-1.0-0.0-0.0-0.0-0.0-2.1","null","","null","<p style='font-size: 60px; color: green'>正确!</p>","","","","","","","","","","","","","","","","","","","","","","","","","","","","","","","","","","","","","","","","","","","","","","","",""
"","","","","","html-keyboard-response","12","1601432","0.0-5.0-1.0-1.0-0.0-0.0-0.0-0.0-0.2","null","fixation","null","<p style='font-size: 48px; color: white'>+</p >","","","","","","","","","","","","","","","","","","","","","","","","","","","","","","","","","","","","","","","","","","","","","","","",""
"","","","","","rdk","13","1602799","0.0-5.0-1.0-1.0-0.0-0.0-0.0-0.0-1.2","943","color_test","d","","true","[""d"",""k""]","d","3000","true","1","100","0","0","0","3","1","-1","2","300","300","[""hsl(0, 50%, 50%)"",""hsl(225, 50%, 50%)""]","[""hsl(0, 50%, 50%)"",""hsl(225, 50%, 50%)""]","0.5","0.58","0","circle","black","3","2","2","16.666666666666668","[6,16,17,16,17,17,18,17,17,16,16,16,17,16,17,17,17,17,16,17,17,16,17,17,17,17,17,17,17,17,17,17,17,17,17,17,16,17,17,17,17,17,17,17,17,17,17,17,17,17,17,17,17,17,17,17,17]","57","960","482","false","20","20","black","1","false","1","1","1920","964","d","staircase_color","","","","",""
"","","","","","html-keyboard-response","14","1603733","0.0-5.0-1.0-1.0-0.0-0.0-0.0-0.0-2.2","null","","null","<p style='font-size: 60px; color: green'>正确!</p>","","","","","","","","","","","","","","","","","","","","","","","","","","","","","","","","","","","","","","","","","","","","","","","",""
"","","","","","html-keyboard-response","15","1604666","0.0-5.0-1.0-1.0-0.0-0.0-0.0-0.0-0.3","null","fixation","null","<p style='font-size: 48px; color: white'>+</p >","","","","","","","","","","","","","","","","","","","","","","","","","","","","","","","","","","","","","","","","","","","","","","","",""
"","","","","","rdk","16","1605911","0.0-5.0-1.0-1.0-0.0-0.0-0.0-0.0-1.3","821","color_test","k","","true","[""d"",""k""]","k","3000","true","1","100","0","0","0","3","1","-1","2","300","300","[""hsl(0, 50%, 50%)"",""hsl(225, 50%, 50%)""]","[""hsl(225, 50%, 50%)"",""hsl(0, 50%, 50%)""]","0.5","0.58","0","circle","black","3","2","2","16.6734693877551","[5,18,17,16,17,17,17,17,16,16,17,17,17,17,17,18,17,17,17,17,17,17,17,17,17,17,17,16,16,17,16,18,17,17,17,17,17,17,17,17,17,17,17,17,17,17,17,17,16]","49","960","482","false","20","20","black","1","false","1","1","1920","964","k","staircase_color","","","","",""
"","","","","","html-keyboard-response","17","1606849","0.0-5.0-1.0-1.0-0.0-0.0-0.0-0.0-2.3","null","","null","<p style='font-size: 60px; color: green'>正确!</p>","","","","","","","","","","","","","","","","","","","","","","","","","","","","","","","","","","","","","","","","","","","","","","","",""
"","","","","","html-keyboard-response","18","1607782","0.0-5.0-1.0-1.0-0.0-0.0-0.0-0.0-0.4","null","fixation","null","<p style='font-size: 48px; color: white'>+</p >","","","","","","","","","","","","","","","","","","","","","","","","","","","","","","","","","","","","","","","","","","","","","","","",""
"","","","","","rdk","19","1608871","0.0-5.0-1.0-1.0-0.0-0.0-0.0-0.0-1.4","665","color_test","d","","true","[""d"",""k""]","d","3000","true","1","100","0","0","0","3","1","-1","2","300","300","[""hsl(0, 50%, 50%)"",""hsl(225, 50%, 50%)""]","[""hsl(0, 50%, 50%)"",""hsl(225, 50%, 50%)""]","0.5","0.58","0","circle","black","3","2","2","16.65","[7,15,17,17,17,17,16,17,17,16,17,17,17,17,17,17,17,17,17,17,17,17,17,17,17,17,17,17,17,17,17,17,17,17,17,17,17,17,17,17]","40","960","482","false","20","20","black","1","false","1","1","1920","964","d","staircase_color","","","","",""
"","","","","","html-keyboard-response","20","1609797","0.0-5.0-1.0-1.0-0.0-0.0-0.0-0.0-2.4","null","","null","<p style='font-size: 60px; color: green'>正确!</p>","","","","","","","","","","","","","","","","","","","","","","","","","","","","","","","","","","","","","","","","","","","","","","","",""
"","","","","","html-keyboard-response","21","1610732","0.0-5.0-1.0-1.0-0.0-0.0-0.0-0.0-0.5","null","fixation","null","<p style='font-size: 48px; color: white'>+</p >","","","","","","","","","","","","","","","","","","","","","","","","","","","","","","","","","","","","","","","","","","","","","","","",""
"","","","","","rdk","22","1612134","0.0-5.0-1.0-1.0-0.0-0.0-0.0-0.0-1.5","978","color_test","d","","true","[""d"",""k""]","d","3000","true","1","100","0","0","0","3","1","-1","2","300","300","[""hsl(0, 50%, 50%)"",""hsl(225, 50%, 50%)""]","[""hsl(0, 50%, 50%)"",""hsl(225, 50%, 50%)""]","0.5","0.58","0","circle","black","3","2","2","16.677966101694917","[5,18,16,17,17,17,17,17,17,16,17,17,16,17,17,16,17,17,17,17,17,17,17,17,17,17,17,17,17,17,17,17,17,17,17,17,17,16,17,17,17,17,17,17,17,17,17,16,17,17,17,17,15,17,17,17,17,17,17]","59","960","482","false","20","20","black","1","false","1","1","1920","964","d","staircase_color","","","","",""
"","","","","","html-keyboard-response","23","1613064","0.0-5.0-1.0-1.0-0.0-0.0-0.0-0.0-2.5","null","","null","<p style='font-size: 60px; color: green'>正确!</p>","","","","","","","","","","","","","","","","","","","","","","","","","","","","","","","","","","","","","","","","","","","","","","","",""
"","","","","","html-keyboard-response","24","1613999","0.0-5.0-1.0-1.0-0.0-0.0-0.0-0.0-0.6","null","fixation","null","<p style='font-size: 48px; color: white'>+</p >","","","","","","","","","","","","","","","","","","","","","","","","","","","","","","","","","","","","","","","","","","","","","","","",""
"","","","","","rdk","25","1614984","0.0-5.0-1.0-1.0-0.0-0.0-0.0-0.0-1.6","560","color_test","k","","true","[""d"",""k""]","k","3000","true","1","100","0","0","0","3","1","-1","2","300","300","[""hsl(0, 50%, 50%)"",""hsl(225, 50%, 50%)""]","[""hsl(225, 50%, 50%)"",""hsl(0, 50%, 50%)""]","0.5","0.58","0","circle","black","3","2","2","16.558823529411764","[5,17,17,17,17,17,17,17,17,16,17,17,17,17,17,17,16,17,17,17,17,17,17,16,17,17,17,17,17,17,17,17,17,17]","34","960","482","false","20","20","black","1","false","1","1","1920","964","k","staircase_color","","","","",""
"","","","","","html-keyboard-response","26","1615916","0.0-5.0-1.0-1.0-0.0-0.0-0.0-0.0-2.6","null","","null","<p style='font-size: 60px; color: green'>正确!</p>","","","","","","","","","","","","","","","","","","","","","","","","","","","","","","","","","","","","","","","","","","","","","","","",""
"","","","","","html-keyboard-response","27","1616848","0.0-5.0-1.0-1.0-0.0-0.0-0.0-0.0-0.7","null","fixation","null","<p style='font-size: 48px; color: white'>+</p >","","","","","","","","","","","","","","","","","","","","","","","","","","","","","","","","","","","","","","","","","","","","","","","",""
"","","","","","rdk","28","1618407","0.0-5.0-1.0-1.0-0.0-0.0-0.0-0.0-1.7","1134","color_test","k","","true","[""d"",""k""]","k","3000","true","1","100","0","0","0","3","1","-1","2","300","300","[""hsl(0, 50%, 50%)"",""hsl(225, 50%, 50%)""]","[""hsl(225, 50%, 50%)"",""hsl(0, 50%, 50%)""]","0.5","0.58","0","circle","black","3","2","2","16.720588235294116","[6,16,17,17,17,16,17,17,17,16,17,17,17,17,17,17,17,17,17,17,17,16,17,17,17,17,17,17,16,17,17,17,17,17,17,17,17,17,16,17,17,17,17,16,17,17,17,17,17,17,17,17,17,17,17,17,17,17,17,17,17,17,17,17,16,17,17,17]","68","960","482","false","20","20","black","1","false","1","1","1920","964","k","staircase_color","","","","",""
"","","","","","html-keyboard-response","29","1619331","0.0-5.0-1.0-1.0-0.0-0.0-0.0-0.0-2.7","null","","null","<p style='font-size: 60px; color: green'>正确!</p>","","","","","","","","","","","","","","","","","","","","","","","","","","","","","","","","","","","","","","","","","","","","","","","",""
"","","","","","html-keyboard-response","30","1620265","0.0-5.0-1.0-1.0-0.0-0.0-0.0-0.0-0.8","null","fixation","null","<p style='font-size: 48px; color: white'>+</p >","","","","","","","","","","","","","","","","","","","","","","","","","","","","","","","","","","","","","","","","","","","","","","","",""
"","","","","","rdk","31","1621784","0.0-5.0-1.0-1.0-0.0-0.0-0.0-0.0-1.8","1093","color_test","d","","false","[""d"",""k""]","k","3000","true","1","100","0","0","0","3","1","-1","2","300","300","[""hsl(0, 50%, 50%)"",""hsl(225, 50%, 50%)""]","[""hsl(225, 50%, 50%)"",""hsl(0, 50%, 50%)""]","0.5","0.58","0","circle","black","3","2","2","16.681818181818183","[4,17,17,17,17,17,17,15,17,17,17,17,17,17,17,16,16,17,17,17,17,17,17,17,17,17,17,17,17,17,17,17,16,17,17,17,17,16,17,17,17,17,16,17,17,17,17,17,17,17,17,17,17,17,17,16,17,17,17,17,17,17,17,17,17,17]","66","960","482","false","20","20","black","1","false","1","1","1920","964","k","staircase_color","","","","",""
"","","","","","html-keyboard-response","32","1622716","0.0-5.0-1.0-1.0-0.0-0.0-0.0-0.0-2.8","null","","null","<p style='font-size: 60px; color: red'>错误!</p>","","","","","","","","","","","","","","","","","","","","","","","","","","","","","","","","","","","","","","","","","","","","","","","",""
"","","","","","html-keyboard-response","33","1623654","0.0-5.0-1.0-1.0-0.0-0.0-0.0-0.0-0.9","null","fixation","null","<p style='font-size: 48px; color: white'>+</p >","","","","","","","","","","","","","","","","","","","","","","","","","","","","","","","","","","","","","","","","","","","","","","","",""
"","","","","","rdk","34","1625039","0.0-5.0-1.0-1.0-0.0-0.0-0.0-0.0-1.9","966","color_test","d","","true","[""d"",""k""]","d","3000","true","1","100","0","0","0","3","1","-1","2","300","300","[""hsl(0, 50%, 50%)"",""hsl(225, 50%, 50%)""]","[""hsl(0, 50%, 50%)"",""hsl(225, 50%, 50%)""]","0.5","0.58","0","circle","black","3","2","2","16.655172413793103","[5,17,17,17,17,17,17,16,17,16,17,17,17,17,17,17,17,17,17,16,17,17,17,17,17,17,17,17,16,17,17,16,17,17,16,17,17,16,17,17,17,17,17,17,17,17,17,17,17,17,17,17,17,17,17,17,16,17]","58","960","482","false","20","20","black","1","false","1","1","1920","964","d","staircase_color","","","","",""
"","","","","","html-keyboard-response","35","1625966","0.0-5.0-1.0-1.0-0.0-0.0-0.0-0.0-2.9","null","","null","<p style='font-size: 60px; color: green'>正确!</p>","","","","","","","","","","","","","","","","","","","","","","","","","","","","","","","","","","","","","","","","","","","","","","","",""
"","","","","","html-keyboard-response","36","1626898","0.0-5.0-1.0-1.0-0.0-0.0-0.0-0.0-0.10","null","fixation","null","<p style='font-size: 48px; color: white'>+</p >","","","","","","","","","","","","","","","","","","","","","","","","","","","","","","","","","","","","","","","","","","","","","","","",""
"","","","","","rdk","37","1628055","0.0-5.0-1.0-1.0-0.0-0.0-0.0-0.0-1.10","732","color_test","d","","true","[""d"",""k""]","d","3000","true","1","100","0","0","0","3","1","-1","2","300","300","[""hsl(0, 50%, 50%)"",""hsl(225, 50%, 50%)""]","[""hsl(0, 50%, 50%)"",""hsl(225, 50%, 50%)""]","0.5","0.58","0","circle","black","3","2","2","16.65909090909091","[6,17,16,17,17,17,17,17,17,17,17,17,17,17,16,17,17,17,17,17,16,17,17,17,17,17,17,17,17,17,17,17,17,17,17,17,17,17,17,16,17,17,17,17]","44","960","482","false","20","20","black","1","false","1","1","1920","964","d","staircase_color","","","","",""
"","","","","","html-keyboard-response","38","1628980","0.0-5.0-1.0-1.0-0.0-0.0-0.0-0.0-2.10","null","","null","<p style='font-size: 60px; color: green'>正确!</p>","","","","","","","","","","","","","","","","","","","","","","","","","","","","","","","","","","","","","","","","","","","","","","","",""
"","","","","","html-keyboard-response","39","1629915","0.0-5.0-1.0-1.0-0.0-0.0-0.0-0.0-0.11","null","fixation","null","<p style='font-size: 48px; color: white'>+</p >","","","","","","","","","","","","","","","","","","","","","","","","","","","","","","","","","","","","","","","","","","","","","","","",""
"","","","","","rdk","40","1631039","0.0-5.0-1.0-1.0-0.0-0.0-0.0-0.0-1.11","700","color_test","k","","true","[""d"",""k""]","k","3000","true","1","100","0","0","0","3","1","-1","2","300","300","[""hsl(0, 50%, 50%)"",""hsl(225, 50%, 50%)""]","[""hsl(225, 50%, 50%)"",""hsl(0, 50%, 50%)""]","0.5","0.58","0","circle","black","3","2","2","16.61904761904762","[6,17,17,16,16,17,17,17,17,17,17,18,17,17,17,16,17,16,17,17,17,17,17,17,17,17,17,17,17,17,17,17,16,17,17,17,17,17,16,17,17,17]","42","960","482","false","20","20","black","1","false","1","1","1920","964","k","staircase_color","","","","",""
"","","","","","html-keyboard-response","41","1631965","0.0-5.0-1.0-1.0-0.0-0.0-0.0-0.0-2.11","null","","null","<p style='font-size: 60px; color: green'>正确!</p>","","","","","","","","","","","","","","","","","","","","","","","","","","","","","","","","","","","","","","","","","","","","","","","",""
"","","","","","html-keyboard-response","42","1634400","0.0-5.0-1.0-1.0-0.0-0.0-0.0-1.0","null","","null","<p style='font-size: 35px; color: white'>您的正确率为： 83% 。平均反应时为：824毫秒。</p>","","","","","","","","","","","","","","","","","","","","","","","","","","","","","","","","","","","","","","","","","","","","","","","",""
"","","","","","html-keyboard-response","43","1635317","0.0-5.0-1.0-1.0-0.0-1.0-0.0-0.0-0.0","null","fixation","null","<p style='font-size: 48px; color: white'>+</p >","","","","","","","","","","","","","","","","","","","","","","","","","","","","","","","","","","","","","","","","","","","","","","","",""
"","","","","","rdk","44","1636695","0.0-5.0-1.0-1.0-0.0-1.0-0.0-0.0-1.0","956","color_test","k","","true","[""d"",""k""]","k","3000","true","1","100","0","0","0","3","1","-1","2","300","300","[""hsl(0, 50%, 50%)"",""hsl(225, 50%, 50%)""]","[""hsl(225, 50%, 50%)"",""hsl(0, 50%, 50%)""]","0.5","0.56","0","circle","black","3","2","2","16.75438596491228","[7,15,17,16,17,16,17,17,17,18,16,17,17,17,17,17,17,17,17,17,17,17,17,17,17,17,17,17,17,17,17,17,17,17,17,17,17,17,17,17,17,17,17,17,17,17,17,17,17,17,17,17,17,17,17,17,17]","57","960","482","false","20","20","black","1","false","1","1","1920","964","k","staircase_color","","","","",""
"","","","","","html-keyboard-response","45","1637614","0.0-5.0-1.0-1.0-0.0-1.0-0.0-0.0-2.0","null","","null","<p style='font-size: 60px; color: green'>正确!</p>","","","","","","","","","","","","","","","","","","","","","","","","","","","","","","","","","","","","","","","","","","","","","","","",""
"","","","","","html-keyboard-response","46","1638549","0.0-5.0-1.0-1.0-0.0-1.0-0.0-0.0-0.1","null","fixation","null","<p style='font-size: 48px; color: white'>+</p >","","","","","","","","","","","","","","","","","","","","","","","","","","","","","","","","","","","","","","","","","","","","","","","",""
"","","","","","rdk","47","1639750","0.0-5.0-1.0-1.0-0.0-1.0-0.0-0.0-1.1","778","color_test","d","","true","[""d"",""k""]","d","3000","true","1","100","0","0","0","3","1","-1","2","300","300","[""hsl(0, 50%, 50%)"",""hsl(225, 50%, 50%)""]","[""hsl(0, 50%, 50%)"",""hsl(225, 50%, 50%)""]","0.5","0.56","0","circle","black","3","2","2","16.617021276595743","[6,17,17,16,17,16,17,17,17,16,17,17,17,16,17,17,17,16,17,17,16,17,17,17,17,17,17,17,17,16,17,17,17,17,17,17,17,17,17,17,17,17,17,17,17,17,17]","47","960","482","false","20","20","black","1","false","1","1","1920","964","d","staircase_color","","","","",""
"","","","","","html-keyboard-response","48","1640682","0.0-5.0-1.0-1.0-0.0-1.0-0.0-0.0-2.1","null","","null","<p style='font-size: 60px; color: green'>正确!</p>","","","","","","","","","","","","","","","","","","","","","","","","","","","","","","","","","","","","","","","","","","","","","","","",""
"","","","","","html-keyboard-response","49","1641616","0.0-5.0-1.0-1.0-0.0-1.0-0.0-0.0-0.2","null","fixation","null","<p style='font-size: 48px; color: white'>+</p >","","","","","","","","","","","","","","","","","","","","","","","","","","","","","","","","","","","","","","","","","","","","","","","",""
"","","","","","rdk","50","1642527","0.0-5.0-1.0-1.0-0.0-1.0-0.0-0.0-1.2","488","color_test","k","","false","[""d"",""k""]","d","3000","true","1","100","0","0","0","3","1","-1","2","300","300","[""hsl(0, 50%, 50%)"",""hsl(225, 50%, 50%)""]","[""hsl(0, 50%, 50%)"",""hsl(225, 50%, 50%)""]","0.5","0.56","0","circle","black","3","2","2","16.379310344827587","[7,17,17,16,17,17,17,17,17,15,17,16,17,16,17,17,16,17,17,16,17,17,16,17,17,17,17,17,17]","29","960","482","false","20","20","black","1","false","1","1","1920","964","d","staircase_color","","","","",""
"","","","","","html-keyboard-response","51","1643447","0.0-5.0-1.0-1.0-0.0-1.0-0.0-0.0-2.2","null","","null","<p style='font-size: 60px; color: red'>错误!</p>","","","","","","","","","","","","","","","","","","","","","","","","","","","","","","","","","","","","","","","","","","","","","","","",""
"","","","","","html-keyboard-response","52","1644382","0.0-5.0-1.0-1.0-0.0-1.0-0.0-0.0-0.3","null","fixation","null","<p style='font-size: 48px; color: white'>+</p >","","","","","","","","","","","","","","","","","","","","","","","","","","","","","","","","","","","","","","","","","","","","","","","",""
"","","","","","rdk","53","1645950","0.0-5.0-1.0-1.0-0.0-1.0-0.0-0.0-1.3","1151","color_test","k","","true","[""d"",""k""]","k","3000","true","1","100","0","0","0","3","1","-1","2","300","300","[""hsl(0, 50%, 50%)"",""hsl(225, 50%, 50%)""]","[""hsl(225, 50%, 50%)"",""hsl(0, 50%, 50%)""]","0.5","0.56","0","circle","black","3","2","2","16.884057971014492","[13,16,17,17,17,17,17,17,17,17,17,16,17,16,17,17,17,17,17,17,17,17,17,17,17,17,17,17,17,17,17,17,17,17,17,17,17,17,17,17,17,17,17,17,17,17,17,17,17,17,17,17,17,17,17,16,17,17,17,17,17,17,17,17,17,17,17,17,17]","69","960","482","false","20","20","black","1","false","1","1","1920","964","k","staircase_color","","","","",""
"","","","","","html-keyboard-response","54","1646881","0.0-5.0-1.0-1.0-0.0-1.0-0.0-0.0-2.3","null","","null","<p style='font-size: 60px; color: green'>正确!</p>","","","","","","","","","","","","","","","","","","","","","","","","","","","","","","","","","","","","","","","","","","","","","","","",""
"","","","","","html-keyboard-response","55","1647816","0.0-5.0-1.0-1.0-0.0-1.0-0.0-0.0-0.4","null","fixation","null","<p style='font-size: 48px; color: white'>+</p >","","","","","","","","","","","","","","","","","","","","","","","","","","","","","","","","","","","","","","","","","","","","","","","",""
"","","","","","rdk","56","1649095","0.0-5.0-1.0-1.0-0.0-1.0-0.0-0.0-1.4","856","color_test","d","","false","[""d"",""k""]","k","3000","true","1","100","0","0","0","3","1","-1","2","300","300","[""hsl(0, 50%, 50%)"",""hsl(225, 50%, 50%)""]","[""hsl(225, 50%, 50%)"",""hsl(0, 50%, 50%)""]","0.5","0.56","0","circle","black","3","2","2","16.745098039215687","[6,16,17,17,17,17,17,17,17,17,17,17,17,17,16,17,17,17,17,17,17,17,17,17,17,17,17,17,17,17,17,17,17,17,17,17,17,17,17,17,17,17,17,17,17,17,17,17,17,17,17]","51","960","482","false","20","20","black","1","false","1","1","1920","964","k","staircase_color","","","","",""
"","","","","","html-keyboard-response","57","1650015","0.0-5.0-1.0-1.0-0.0-1.0-0.0-0.0-2.4","null","","null","<p style='font-size: 60px; color: red'>错误!</p>","","","","","","","","","","","","","","","","","","","","","","","","","","","","","","","","","","","","","","","","","","","","","","","",""
"","","","","","html-keyboard-response","58","1650949","0.0-5.0-1.0-1.0-0.0-1.0-0.0-0.0-0.5","null","fixation","null","<p style='font-size: 48px; color: white'>+</p >","","","","","","","","","","","","","","","","","","","","","","","","","","","","","","","","","","","","","","","","","","","","","","","",""
"","","","","","rdk","59","1652423","0.0-5.0-1.0-1.0-0.0-1.0-0.0-0.0-1.5","1049","color_test","k","","true","[""d"",""k""]","k","3000","true","1","100","0","0","0","3","1","-1","2","300","300","[""hsl(0, 50%, 50%)"",""hsl(225, 50%, 50%)""]","[""hsl(225, 50%, 50%)"",""hsl(0, 50%, 50%)""]","0.5","0.56","0","circle","black","3","2","2","16.666666666666668","[5,18,17,16,17,16,17,17,17,17,16,16,17,17,17,17,17,17,16,17,17,17,17,17,17,17,17,17,17,17,17,17,17,17,16,17,17,17,17,16,16,17,17,17,17,17,17,17,18,15,17,17,17,17,17,17,17,16,17,17,17,17,17]","63","960","482","false","20","20","black","1","false","1","1","1920","964","k","staircase_color","","","","",""
"","","","","","html-keyboard-response","60","1653348","0.0-5.0-1.0-1.0-0.0-1.0-0.0-0.0-2.5","null","","null","<p style='font-size: 60px; color: green'>正确!</p>","","","","","","","","","","","","","","","","","","","","","","","","","","","","","","","","","","","","","","","","","","","","","","","",""
"","","","","","html-keyboard-response","61","1654282","0.0-5.0-1.0-1.0-0.0-1.0-0.0-0.0-0.6","null","fixation","null","<p style='font-size: 48px; color: white'>+</p >","","","","","","","","","","","","","","","","","","","","","","","","","","","","","","","","","","","","","","","","","","","","","","","",""
"","","","","","rdk","62","1655232","0.0-5.0-1.0-1.0-0.0-1.0-0.0-0.0-1.6","534","color_test","d","","true","[""d"",""k""]","d","3000","true","1","100","0","0","0","3","1","-1","2","300","300","[""hsl(0, 50%, 50%)"",""hsl(225, 50%, 50%)""]","[""hsl(0, 50%, 50%)"",""hsl(225, 50%, 50%)""]","0.5","0.56","0","circle","black","3","2","2","16.84375","[14,17,16,17,17,16,17,17,17,17,17,17,17,17,17,17,17,17,17,17,17,17,17,17,17,17,17,17,17,17,17,17]","32","960","482","false","20","20","black","1","false","1","1","1920","964","d","staircase_color","","","","",""
"","","","","","html-keyboard-response","63","1656165","0.0-5.0-1.0-1.0-0.0-1.0-0.0-0.0-2.6","null","","null","<p style='font-size: 60px; color: green'>正确!</p>","","","","","","","","","","","","","","","","","","","","","","","","","","","","","","","","","","","","","","","","","","","","","","","",""
"","","","","","html-keyboard-response","64","1657098","0.0-5.0-1.0-1.0-0.0-1.0-0.0-0.0-0.7","null","fixation","null","<p style='font-size: 48px; color: white'>+</p >","","","","","","","","","","","","","","","","","","","","","","","","","","","","","","","","","","","","","","","","","","","","","","","",""
"","","","","","rdk","65","1658119","0.0-5.0-1.0-1.0-0.0-1.0-0.0-0.0-1.7","597","color_test","d","","true","[""d"",""k""]","d","3000","true","1","100","0","0","0","3","1","-1","2","300","300","[""hsl(0, 50%, 50%)"",""hsl(225, 50%, 50%)""]","[""hsl(0, 50%, 50%)"",""hsl(225, 50%, 50%)""]","0.5","0.56","0","circle","black","3","2","2","16.61111111111111","[6,17,17,17,17,17,17,16,17,17,16,17,17,17,17,17,17,17,17,17,17,17,17,17,17,17,17,17,17,17,17,17,16,17,17,17]","36","960","482","false","20","20","black","1","false","1","1","1920","964","d","staircase_color","","","","",""
"","","","","","html-keyboard-response","66","1659048","0.0-5.0-1.0-1.0-0.0-1.0-0.0-0.0-2.7","null","","null","<p style='font-size: 60px; color: green'>正确!</p>","","","","","","","","","","","","","","","","","","","","","","","","","","","","","","","","","","","","","","","","","","","","","","","",""
"","","","","","html-keyboard-response","67","1659982","0.0-5.0-1.0-1.0-0.0-1.0-0.0-0.0-0.8","null","fixation","null","<p style='font-size: 48px; color: white'>+</p >","","","","","","","","","","","","","","","","","","","","","","","","","","","","","","","","","","","","","","","","","","","","","","","",""
"","","","","","rdk","68","1661071","0.0-5.0-1.0-1.0-0.0-1.0-0.0-0.0-1.8","664","color_test","k","","true","[""d"",""k""]","k","3000","true","1","100","0","0","0","3","1","-1","2","300","300","[""hsl(0, 50%, 50%)"",""hsl(225, 50%, 50%)""]","[""hsl(225, 50%, 50%)"",""hsl(0, 50%, 50%)""]","0.5","0.56","0","circle","black","3","2","2","16.65","[6,15,17,17,17,17,17,17,16,17,17,17,17,17,17,17,17,17,17,17,17,17,17,17,17,17,17,17,17,17,17,17,17,17,17,17,17,17,17,17]","40","960","482","false","20","20","black","1","false","1","1","1920","964","k","staircase_color","","","","",""
"","","","","","html-keyboard-response","69","1662001","0.0-5.0-1.0-1.0-0.0-1.0-0.0-0.0-2.8","null","","null","<p style='font-size: 60px; color: green'>正确!</p>","","","","","","","","","","","","","","","","","","","","","","","","","","","","","","","","","","","","","","","","","","","","","","","",""
"","","","","","html-keyboard-response","70","1662932","0.0-5.0-1.0-1.0-0.0-1.0-0.0-0.0-0.9","null","fixation","null","<p style='font-size: 48px; color: white'>+</p >","","","","","","","","","","","","","","","","","","","","","","","","","","","","","","","","","","","","","","","","","","","","","","","",""
"","","","","","rdk","71","1664111","0.0-5.0-1.0-1.0-0.0-1.0-0.0-0.0-1.9","755","color_test","k","","true","[""d"",""k""]","k","3000","true","1","100","0","0","0","3","1","-1","2","300","300","[""hsl(0, 50%, 50%)"",""hsl(225, 50%, 50%)""]","[""hsl(225, 50%, 50%)"",""hsl(0, 50%, 50%)""]","0.5","0.56","0","circle","black","3","2","2","16.666666666666668","[7,17,17,17,17,17,17,17,17,17,17,17,17,17,17,17,17,17,16,17,17,16,17,17,17,17,17,17,16,17,17,17,17,17,17,17,17,17,17,16,17,16,17,17,17]","45","960","482","false","20","20","black","1","false","1","1","1920","964","k","staircase_color","","","","",""
"","","","","","html-keyboard-response","72","1665030","0.0-5.0-1.0-1.0-0.0-1.0-0.0-0.0-2.9","null","","null","<p style='font-size: 60px; color: green'>正确!</p>","","","","","","","","","","","","","","","","","","","","","","","","","","","","","","","","","","","","","","","","","","","","","","","",""
"","","","","","html-keyboard-response","73","1665965","0.0-5.0-1.0-1.0-0.0-1.0-0.0-0.0-0.10","null","fixation","null","<p style='font-size: 48px; color: white'>+</p >","","","","","","","","","","","","","","","","","","","","","","","","","","","","","","","","","","","","","","","","","","","","","","","",""
"","","","","","rdk","74","1667103","0.0-5.0-1.0-1.0-0.0-1.0-0.0-0.0-1.10","714","color_test","d","","true","[""d"",""k""]","d","3000","true","1","100","0","0","0","3","1","-1","2","300","300","[""hsl(0, 50%, 50%)"",""hsl(225, 50%, 50%)""]","[""hsl(0, 50%, 50%)"",""hsl(225, 50%, 50%)""]","0.5","0.56","0","circle","black","3","2","2","16.558139534883722","[6,18,17,16,17,17,17,17,17,16,17,17,17,17,16,17,16,16,17,17,17,17,17,17,17,17,17,16,17,17,17,16,17,18,17,16,17,16,17,16,17,17,17]","43","960","482","false","20","20","black","1","false","1","1","1920","964","d","staircase_color","","","","",""
"","","","","","html-keyboard-response","75","1668032","0.0-5.0-1.0-1.0-0.0-1.0-0.0-0.0-2.10","null","","null","<p style='font-size: 60px; color: green'>正确!</p>","","","","","","","","","","","","","","","","","","","","","","","","","","","","","","","","","","","","","","","","","","","","","","","",""
"","","","","","html-keyboard-response","76","1668965","0.0-5.0-1.0-1.0-0.0-1.0-0.0-0.0-0.11","null","fixation","null","<p style='font-size: 48px; color: white'>+</p >","","","","","","","","","","","","","","","","","","","","","","","","","","","","","","","","","","","","","","","","","","","","","","","",""
"","","","","","rdk","77","1669903","0.0-5.0-1.0-1.0-0.0-1.0-0.0-0.0-1.11","514","color_test","d","","true","[""d"",""k""]","d","3000","true","1","100","0","0","0","3","1","-1","2","300","300","[""hsl(0, 50%, 50%)"",""hsl(225, 50%, 50%)""]","[""hsl(0, 50%, 50%)"",""hsl(225, 50%, 50%)""]","0.5","0.56","0","circle","black","3","2","2","16.483870967741936","[6,17,17,17,17,17,17,17,17,17,16,17,17,17,17,16,17,17,17,17,16,17,16,17,17,17,17,16,17,17,17]","31","960","482","false","20","20","black","1","false","1","1","1920","964","d","staircase_color","","","","",""
"","","","","","html-keyboard-response","78","1670830","0.0-5.0-1.0-1.0-0.0-1.0-0.0-0.0-2.11","null","","null","<p style='font-size: 60px; color: green'>正确!</p>","","","","","","","","","","","","","","","","","","","","","","","","","","","","","","","","","","","","","","","","","","","","","","","",""
"","","","","","html-keyboard-response","79","1673265","0.0-5.0-1.0-1.0-0.0-1.0-0.0-1.0","null","","null","<p style='font-size: 35px; color: white'>您的正确率为： 83% 。平均反应时为：755毫秒。</p>","","","","","","","","","","","","","","","","","","","","","","","","","","","","","","","","","","","","","","","","","","","","","","","",""
"","","","","","html-keyboard-response","80","1674199","0.0-5.0-1.0-1.0-0.0-2.0-0.0-0.0-0.0","null","fixation","null","<p style='font-size: 48px; color: white'>+</p >","","","","","","","","","","","","","","","","","","","","","","","","","","","","","","","","","","","","","","","","","","","","","","","",""
"","","","","","rdk","81","1675832","0.0-5.0-1.0-1.0-0.0-2.0-0.0-0.0-1.0","1208","color_test","k","","true","[""d"",""k""]","k","3000","true","1","100","0","0","0","3","1","-1","2","300","300","[""hsl(0, 50%, 50%)"",""hsl(225, 50%, 50%)""]","[""hsl(225, 50%, 50%)"",""hsl(0, 50%, 50%)""]","0.5","0.54","0","circle","black","3","2","2","16.753424657534246","[6,14,17,17,17,17,18,16,17,17,17,17,17,17,17,17,17,17,17,17,17,17,17,17,17,17,16,17,17,17,17,17,17,17,17,17,16,17,17,16,17,16,18,16,17,17,17,17,17,17,17,17,17,17,16,17,17,17,17,17,17,17,17,17,17,17,17,17,17,17,17,17,18]","73","960","482","false","20","20","black","1","false","1","1","1920","964","k","staircase_color","","","","",""
"","","","","","html-keyboard-response","82","1676766","0.0-5.0-1.0-1.0-0.0-2.0-0.0-0.0-2.0","null","","null","<p style='font-size: 60px; color: green'>正确!</p>","","","","","","","","","","","","","","","","","","","","","","","","","","","","","","","","","","","","","","","","","","","","","","","",""
"","","","","","html-keyboard-response","83","1677698","0.0-5.0-1.0-1.0-0.0-2.0-0.0-0.0-0.1","null","fixation","null","<p style='font-size: 48px; color: white'>+</p >","","","","","","","","","","","","","","","","","","","","","","","","","","","","","","","","","","","","","","","","","","","","","","","",""
"","","","","","rdk","84","1678871","0.0-5.0-1.0-1.0-0.0-2.0-0.0-0.0-1.1","748","color_test","d","","true","[""d"",""k""]","d","3000","true","1","100","0","0","0","3","1","-1","2","300","300","[""hsl(0, 50%, 50%)"",""hsl(225, 50%, 50%)""]","[""hsl(0, 50%, 50%)"",""hsl(225, 50%, 50%)""]","0.5","0.54","0","circle","black","3","2","2","16.6","[5,18,17,16,17,17,17,17,17,16,17,16,17,17,17,17,17,17,17,17,17,17,17,17,16,17,17,17,17,17,17,17,17,17,16,17,17,17,17,17,17,16,17,16,17]","45","960","482","false","20","20","black","1","false","1","1","1920","964","d","staircase_color","","","","",""
"","","","","","html-keyboard-response","85","1679799","0.0-5.0-1.0-1.0-0.0-2.0-0.0-0.0-2.1","null","","null","<p style='font-size: 60px; color: green'>正确!</p>","","","","","","","","","","","","","","","","","","","","","","","","","","","","","","","","","","","","","","","","","","","","","","","",""
"","","","","","html-keyboard-response","86","1680732","0.0-5.0-1.0-1.0-0.0-2.0-0.0-0.0-0.2","null","fixation","null","<p style='font-size: 48px; color: white'>+</p >","","","","","","","","","","","","","","","","","","","","","","","","","","","","","","","","","","","","","","","","","","","","","","","",""
"","","","","","rdk","87","1681967","0.0-5.0-1.0-1.0-0.0-2.0-0.0-0.0-1.2","811","color_test","d","","false","[""d"",""k""]","k","3000","true","1","100","0","0","0","3","1","-1","2","300","300","[""hsl(0, 50%, 50%)"",""hsl(225, 50%, 50%)""]","[""hsl(225, 50%, 50%)"",""hsl(0, 50%, 50%)""]","0.5","0.54","0","circle","black","3","2","2","16.551020408163264","[6,17,17,16,17,17,17,17,17,16,17,17,16,17,17,17,17,17,17,16,17,17,17,17,17,16,17,17,17,17,17,15,17,16,17,17,17,17,17,17,17,17,16,17,17,16,17,16,17]","49","960","482","false","20","20","black","1","false","1","1","1920","964","k","staircase_color","","","","",""
"","","","","","html-keyboard-response","88","1682899","0.0-5.0-1.0-1.0-0.0-2.0-0.0-0.0-2.2","null","","null","<p style='font-size: 60px; color: red'>错误!</p>","","","","","","","","","","","","","","","","","","","","","","","","","","","","","","","","","","","","","","","","","","","","","","","",""
"","","","","","html-keyboard-response","89","1683831","0.0-5.0-1.0-1.0-0.0-2.0-0.0-0.0-0.3","null","fixation","null","<p style='font-size: 48px; color: white'>+</p >","","","","","","","","","","","","","","","","","","","","","","","","","","","","","","","","","","","","","","","","","","","","","","","",""
"","","","","","rdk","90","1685006","0.0-5.0-1.0-1.0-0.0-2.0-0.0-0.0-1.3","751","color_test","d","","true","[""d"",""k""]","d","3000","true","1","100","0","0","0","3","1","-1","2","300","300","[""hsl(0, 50%, 50%)"",""hsl(225, 50%, 50%)""]","[""hsl(0, 50%, 50%)"",""hsl(225, 50%, 50%)""]","0.5","0.54","0","circle","black","3","2","2","16.555555555555557","[6,18,16,17,16,17,16,17,17,16,15,17,17,17,17,17,17,17,17,17,17,17,17,17,17,17,17,17,17,17,16,17,17,17,17,16,17,16,17,16,17,17,17,17,17]","45","960","482","false","20","20","black","1","false","1","1","1920","964","d","staircase_color","","","","",""
"","","","","","html-keyboard-response","91","1685933","0.0-5.0-1.0-1.0-0.0-2.0-0.0-0.0-2.3","null","","null","<p style='font-size: 60px; color: green'>正确!</p>","","","","","","","","","","","","","","","","","","","","","","","","","","","","","","","","","","","","","","","","","","","","","","","",""
"","","","","","html-keyboard-response","92","1686865","0.0-5.0-1.0-1.0-0.0-2.0-0.0-0.0-0.4","null","fixation","null","<p style='font-size: 48px; color: white'>+</p >","","","","","","","","","","","","","","","","","","","","","","","","","","","","","","","","","","","","","","","","","","","","","","","",""
"","","","","","rdk","93","1688366","0.0-5.0-1.0-1.0-0.0-2.0-0.0-0.0-1.4","1077","color_test","d","","true","[""d"",""k""]","d","3000","true","1","100","0","0","0","3","1","-1","2","300","300","[""hsl(0, 50%, 50%)"",""hsl(225, 50%, 50%)""]","[""hsl(0, 50%, 50%)"",""hsl(225, 50%, 50%)""]","0.5","0.54","0","circle","black","3","2","2","16.784615384615385","[6,16,17,17,17,16,17,16,17,17,17,17,17,17,17,17,17,17,17,17,17,17,17,17,17,17,17,17,17,17,17,17,17,17,17,17,17,17,17,17,17,17,17,17,17,17,17,17,17,17,17,17,17,17,17,17,17,17,17,17,17,17,17,17,17]","65","960","482","false","20","20","black","1","false","1","1","1920","964","d","staircase_color","","","","",""
"","","","","","html-keyboard-response","94","1689299","0.0-5.0-1.0-1.0-0.0-2.0-0.0-0.0-2.4","null","","null","<p style='font-size: 60px; color: green'>正确!</p>","","","","","","","","","","","","","","","","","","","","","","","","","","","","","","","","","","","","","","","","","","","","","","","",""
"","","","","","html-keyboard-response","95","1690232","0.0-5.0-1.0-1.0-0.0-2.0-0.0-0.0-0.5","null","fixation","null","<p style='font-size: 48px; color: white'>+</p >","","","","","","","","","","","","","","","","","","","","","","","","","","","","","","","","","","","","","","","","","","","","","","","",""
"","","","","","rdk","96","1691263","0.0-5.0-1.0-1.0-0.0-2.0-0.0-0.0-1.5","607","color_test","k","","true","[""d"",""k""]","k","3000","true","1","100","0","0","0","3","1","-1","2","300","300","[""hsl(0, 50%, 50%)"",""hsl(225, 50%, 50%)""]","[""hsl(225, 50%, 50%)"",""hsl(0, 50%, 50%)""]","0.5","0.54","0","circle","black","3","2","2","16.583333333333332","[6,17,17,17,16,17,17,17,17,17,17,17,16,17,17,16,17,17,17,17,17,17,16,17,17,17,17,17,17,17,17,17,17,17,17,17]","36","960","482","false","20","20","black","1","false","1","1","1920","964","k","staircase_color","","","","",""
"","","","","","html-keyboard-response","97","1692198","0.0-5.0-1.0-1.0-0.0-2.0-0.0-0.0-2.5","null","","null","<p style='font-size: 60px; color: green'>正确!</p>","","","","","","","","","","","","","","","","","","","","","","","","","","","","","","","","","","","","","","","","","","","","","","","",""
"","","","","","html-keyboard-response","98","1693123","0.0-5.0-1.0-1.0-0.0-2.0-0.0-0.0-0.6","null","fixation","null","<p style='font-size: 48px; color: white'>+</p >","","","","","","","","","","","","","","","","","","","","","","","","","","","","","","","","","","","","","","","","","","","","","","","",""
"","","","","","rdk","99","1694633","0.0-5.0-1.0-1.0-0.0-2.0-0.0-0.0-1.6","1095","color_test","k","","true","[""d"",""k""]","k","3000","true","1","100","0","0","0","3","1","-1","2","300","300","[""hsl(0, 50%, 50%)"",""hsl(225, 50%, 50%)""]","[""hsl(225, 50%, 50%)"",""hsl(0, 50%, 50%)""]","0.5","0.54","0","circle","black","3","2","2","16.833333333333332","[7,17,17,17,17,17,17,17,17,17,17,17,17,17,17,17,17,17,17,17,17,17,17,17,17,17,17,17,17,17,17,17,17,17,17,17,17,17,17,17,17,17,17,17,17,17,17,17,16,17,17,16,17,17,17,17,17,17,17,17,17,17,17,17,17,18]","66","960","482","false","20","20","black","1","false","1","1","1920","964","k","staircase_color","","","","",""
"","","","","","html-keyboard-response","100","1695566","0.0-5.0-1.0-1.0-0.0-2.0-0.0-0.0-2.6","null","","null","<p style='font-size: 60px; color: green'>正确!</p>","","","","","","","","","","","","","","","","","","","","","","","","","","","","","","","","","","","","","","","","","","","","","","","",""
"","","","","","html-keyboard-response","101","1696498","0.0-5.0-1.0-1.0-0.0-2.0-0.0-0.0-0.7","null","fixation","null","<p style='font-size: 48px; color: white'>+</p >","","","","","","","","","","","","","","","","","","","","","","","","","","","","","","","","","","","","","","","","","","","","","","","",""
"","","","","","rdk","102","1697575","0.0-5.0-1.0-1.0-0.0-2.0-0.0-0.0-1.7","652","color_test","d","","true","[""d"",""k""]","d","3000","true","1","100","0","0","0","3","1","-1","2","300","300","[""hsl(0, 50%, 50%)"",""hsl(225, 50%, 50%)""]","[""hsl(0, 50%, 50%)"",""hsl(225, 50%, 50%)""]","0.5","0.54","0","circle","black","3","2","2","16.53846153846154","[5,17,16,17,17,17,17,17,17,17,16,17,16,17,17,17,17,16,17,17,17,17,17,17,17,17,17,17,17,17,17,17,16,17,17,17,17,16,17]","39","960","482","false","20","20","black","1","false","1","1","1920","964","d","staircase_color","","","","",""
"","","","","","html-keyboard-response","103","1698499","0.0-5.0-1.0-1.0-0.0-2.0-0.0-0.0-2.7","null","","null","<p style='font-size: 60px; color: green'>正确!</p>","","","","","","","","","","","","","","","","","","","","","","","","","","","","","","","","","","","","","","","","","","","","","","","",""
"","","","","","html-keyboard-response","104","1699432","0.0-5.0-1.0-1.0-0.0-2.0-0.0-0.0-0.8","null","fixation","null","<p style='font-size: 48px; color: white'>+</p >","","","","","","","","","","","","","","","","","","","","","","","","","","","","","","","","","","","","","","","","","","","","","","","",""
"","","","","","rdk","105","1700565","0.0-5.0-1.0-1.0-0.0-2.0-0.0-0.0-1.8","710","color_test","k","","true","[""d"",""k""]","k","3000","true","1","100","0","0","0","3","1","-1","2","300","300","[""hsl(0, 50%, 50%)"",""hsl(225, 50%, 50%)""]","[""hsl(225, 50%, 50%)"",""hsl(0, 50%, 50%)""]","0.5","0.54","0","circle","black","3","2","2","16.627906976744185","[6,17,17,17,17,17,16,16,17,16,17,17,17,17,16,17,17,17,17,17,17,17,17,17,17,17,17,16,17,17,17,17,17,17,17,17,17,18,16,18,16,17,17]","43","960","482","false","20","20","black","1","false","1","1","1920","964","k","staircase_color","","","","",""
"","","","","","html-keyboard-response","106","1701499","0.0-5.0-1.0-1.0-0.0-2.0-0.0-0.0-2.8","null","","null","<p style='font-size: 60px; color: green'>正确!</p>","","","","","","","","","","","","","","","","","","","","","","","","","","","","","","","","","","","","","","","","","","","","","","","",""
"","","","","","html-keyboard-response","107","1702431","0.0-5.0-1.0-1.0-0.0-2.0-0.0-0.0-0.9","null","fixation","null","<p style='font-size: 48px; color: white'>+</p >","","","","","","","","","","","","","","","","","","","","","","","","","","","","","","","","","","","","","","","","","","","","","","","",""
"","","","","","rdk","108","1703527","0.0-5.0-1.0-1.0-0.0-2.0-0.0-0.0-1.9","671","color_test","d","","true","[""d"",""k""]","d","3000","true","1","100","0","0","0","3","1","-1","2","300","300","[""hsl(0, 50%, 50%)"",""hsl(225, 50%, 50%)""]","[""hsl(0, 50%, 50%)"",""hsl(225, 50%, 50%)""]","0.5","0.54","0","circle","black","3","2","2","16.6","[7,16,17,17,17,18,17,15,17,17,17,17,16,17,16,17,17,17,16,17,17,17,17,17,17,17,17,17,17,17,17,17,17,17,17,17,17,17,16,17]","40","960","482","false","20","20","black","1","false","1","1","1920","964","d","staircase_color","","","","",""
"","","","","","html-keyboard-response","109","1704448","0.0-5.0-1.0-1.0-0.0-2.0-0.0-0.0-2.9","null","","null","<p style='font-size: 60px; color: green'>正确!</p>","","","","","","","","","","","","","","","","","","","","","","","","","","","","","","","","","","","","","","","","","","","","","","","",""
"","","","","","html-keyboard-response","110","1705382","0.0-5.0-1.0-1.0-0.0-2.0-0.0-0.0-0.10","null","fixation","null","<p style='font-size: 48px; color: white'>+</p >","","","","","","","","","","","","","","","","","","","","","","","","","","","","","","","","","","","","","","","","","","","","","","","",""
"","","","","","rdk","111","1706926","0.0-5.0-1.0-1.0-0.0-2.0-0.0-0.0-1.10","1120","color_test","k","","true","[""d"",""k""]","k","3000","true","1","100","0","0","0","3","1","-1","2","300","300","[""hsl(0, 50%, 50%)"",""hsl(225, 50%, 50%)""]","[""hsl(225, 50%, 50%)"",""hsl(0, 50%, 50%)""]","0.5","0.54","0","circle","black","3","2","2","16.64179104477612","[6,18,16,16,17,17,17,17,17,17,17,17,16,17,16,17,16,17,18,17,16,17,17,17,17,16,17,17,17,17,16,17,17,17,16,17,16,17,17,17,17,17,17,17,17,17,17,17,16,17,17,17,17,16,17,17,17,17,16,17,16,17,17,16,17,17,17]","67","960","482","false","20","20","black","1","false","1","1","1920","964","k","staircase_color","","","","",""
"","","","","","html-keyboard-response","112","1707849","0.0-5.0-1.0-1.0-0.0-2.0-0.0-0.0-2.10","null","","null","<p style='font-size: 60px; color: green'>正确!</p>","","","","","","","","","","","","","","","","","","","","","","","","","","","","","","","","","","","","","","","","","","","","","","","",""
"","","","","","html-keyboard-response","113","1708782","0.0-5.0-1.0-1.0-0.0-2.0-0.0-0.0-0.11","null","fixation","null","<p style='font-size: 48px; color: white'>+</p >","","","","","","","","","","","","","","","","","","","","","","","","","","","","","","","","","","","","","","","","","","","","","","","",""
"","","","","","rdk","114","1710238","0.0-5.0-1.0-1.0-0.0-2.0-0.0-0.0-1.11","1034","color_test","k","","false","[""d"",""k""]","d","3000","true","1","100","0","0","0","3","1","-1","2","300","300","[""hsl(0, 50%, 50%)"",""hsl(225, 50%, 50%)""]","[""hsl(0, 50%, 50%)"",""hsl(225, 50%, 50%)""]","0.5","0.54","0","circle","black","3","2","2","16.822580645161292","[7,17,17,17,17,17,17,17,17,17,17,17,17,17,17,17,17,17,16,17,17,17,17,17,17,17,17,17,17,17,17,17,17,17,17,17,17,17,17,17,17,17,17,17,17,17,17,17,17,17,17,17,17,17,17,17,17,17,17,17,17,17]","62","960","482","false","20","20","black","1","false","1","1","1920","964","d","staircase_color","","","","",""
"","","","","","html-keyboard-response","115","1711164","0.0-5.0-1.0-1.0-0.0-2.0-0.0-0.0-2.11","null","","null","<p style='font-size: 60px; color: red'>错误!</p>","","","","","","","","","","","","","","","","","","","","","","","","","","","","","","","","","","","","","","","","","","","","","","","",""
"","","","","","html-keyboard-response","116","1713597","0.0-5.0-1.0-1.0-0.0-2.0-0.0-1.0","null","","null","<p style='font-size: 35px; color: white'>您的正确率为： 83% 。平均反应时为：874毫秒。</p>","","","","","","","","","","","","","","","","","","","","","","","","","","","","","","","","","","","","","","","","","","","","","","","",""
"","","","","","html-keyboard-response","117","1714530","0.0-5.0-1.0-1.0-0.0-3.0-0.0-0.0-0.0","null","fixation","null","<p style='font-size: 48px; color: white'>+</p >","","","","","","","","","","","","","","","","","","","","","","","","","","","","","","","","","","","","","","","","","","","","","","","",""
"","","","","","rdk","118","1715886","0.0-5.0-1.0-1.0-0.0-3.0-0.0-0.0-1.0","931","color_test","k","","true","[""d"",""k""]","k","3000","true","1","100","0","0","0","3","1","-1","2","300","300","[""hsl(0, 50%, 50%)"",""hsl(225, 50%, 50%)""]","[""hsl(225, 50%, 50%)"",""hsl(0, 50%, 50%)""]","0.5","0.52","0","circle","black","3","2","2","16.678571428571427","[6,16,17,17,16,17,17,17,16,16,17,16,17,17,16,17,16,17,17,17,17,17,17,17,17,17,17,17,17,17,17,17,17,17,17,17,17,17,17,17,17,17,17,17,17,17,17,17,17,17,17,17,17,17,17,17]","56","960","482","false","20","20","black","1","false","1","1","1920","964","k","staircase_color","","","","",""
"","","","","","html-keyboard-response","119","1716816","0.0-5.0-1.0-1.0-0.0-3.0-0.0-0.0-2.0","null","","null","<p style='font-size: 60px; color: green'>正确!</p>","","","","","","","","","","","","","","","","","","","","","","","","","","","","","","","","","","","","","","","","","","","","","","","",""
"","","","","","html-keyboard-response","120","1717748","0.0-5.0-1.0-1.0-0.0-3.0-0.0-0.0-0.1","null","fixation","null","<p style='font-size: 48px; color: white'>+</p >","","","","","","","","","","","","","","","","","","","","","","","","","","","","","","","","","","","","","","","","","","","","","","","",""
"","","","","","rdk","121","1719006","0.0-5.0-1.0-1.0-0.0-3.0-0.0-0.0-1.1","834","color_test","d","","false","[""d"",""k""]","k","3000","true","1","100","0","0","0","3","1","-1","2","300","300","[""hsl(0, 50%, 50%)"",""hsl(225, 50%, 50%)""]","[""hsl(225, 50%, 50%)"",""hsl(0, 50%, 50%)""]","0.5","0.52","0","circle","black","3","2","2","16.68","[6,17,17,17,17,17,17,17,17,17,17,17,17,17,17,17,17,16,17,16,17,17,17,17,17,17,17,17,16,17,17,16,17,17,17,17,16,17,17,17,17,17,17,17,17,17,17,17,17,17]","50","960","482","false","20","20","black","1","false","1","1","1920","964","k","staircase_color","","","","",""
"","","","","","html-keyboard-response","122","1719930","0.0-5.0-1.0-1.0-0.0-3.0-0.0-0.0-2.1","null","","null","<p style='font-size: 60px; color: red'>错误!</p>","","","","","","","","","","","","","","","","","","","","","","","","","","","","","","","","","","","","","","","","","","","","","","","",""
"","","","","","html-keyboard-response","123","1720866","0.0-5.0-1.0-1.0-0.0-3.0-0.0-0.0-0.2","null","fixation","null","<p style='font-size: 48px; color: white'>+</p >","","","","","","","","","","","","","","","","","","","","","","","","","","","","","","","","","","","","","","","","","","","","","","","",""
"","","","","","rdk","124","1722142","0.0-5.0-1.0-1.0-0.0-3.0-0.0-0.0-1.2","853","color_test","k","","false","[""d"",""k""]","d","3000","true","1","100","0","0","0","3","1","-1","2","300","300","[""hsl(0, 50%, 50%)"",""hsl(225, 50%, 50%)""]","[""hsl(0, 50%, 50%)"",""hsl(225, 50%, 50%)""]","0.5","0.52","0","circle","black","3","2","2","16.686274509803923","[6,18,16,17,17,17,17,17,17,17,17,17,16,17,16,17,17,17,17,17,17,17,17,17,17,17,17,17,17,17,17,17,17,17,17,17,17,17,17,17,17,17,17,17,16,16,17,17,17,17,16]","51","960","482","false","20","20","black","1","false","1","1","1920","964","d","staircase_color","","","","",""
"","","","","","html-keyboard-response","125","1723064","0.0-5.0-1.0-1.0-0.0-3.0-0.0-0.0-2.2","null","","null","<p style='font-size: 60px; color: red'>错误!</p>","","","","","","","","","","","","","","","","","","","","","","","","","","","","","","","","","","","","","","","","","","","","","","","",""
"","","","","","html-keyboard-response","126","1723998","0.0-5.0-1.0-1.0-0.0-3.0-0.0-0.0-0.3","null","fixation","null","<p style='font-size: 48px; color: white'>+</p >","","","","","","","","","","","","","","","","","","","","","","","","","","","","","","","","","","","","","","","","","","","","","","","",""
"","","","","","rdk","127","1725686","0.0-5.0-1.0-1.0-0.0-3.0-0.0-0.0-1.3","1265","color_test","k","","false","[""d"",""k""]","d","3000","true","1","100","0","0","0","3","1","-1","2","300","300","[""hsl(0, 50%, 50%)"",""hsl(225, 50%, 50%)""]","[""hsl(0, 50%, 50%)"",""hsl(225, 50%, 50%)""]","0.5","0.52","0","circle","black","3","2","2","16.789473684210527","[7,17,17,17,17,17,16,17,17,18,16,16,17,17,17,16,17,17,17,17,17,17,17,17,17,17,17,16,17,17,17,17,17,17,17,17,17,17,17,17,17,17,17,17,17,17,17,17,17,17,16,17,17,16,17,17,17,17,17,17,17,17,17,17,17,17,17,17,17,17,17,17,17,17,17,17]","76","960","482","false","20","20","black","1","false","1","1","1920","964","d","staircase_color","","","","",""
"","","","","","html-keyboard-response","128","1726614","0.0-5.0-1.0-1.0-0.0-3.0-0.0-0.0-2.3","null","","null","<p style='font-size: 60px; color: red'>错误!</p>","","","","","","","","","","","","","","","","","","","","","","","","","","","","","","","","","","","","","","","","","","","","","","","",""
"","","","","","html-keyboard-response","129","1727549","0.0-5.0-1.0-1.0-0.0-3.0-0.0-0.0-0.4","null","fixation","null","<p style='font-size: 48px; color: white'>+</p >","","","","","","","","","","","","","","","","","","","","","","","","","","","","","","","","","","","","","","","","","","","","","","","",""
"","","","","","rdk","130","1729534","0.0-5.0-1.0-1.0-0.0-3.0-0.0-0.0-1.4","1562","color_test","k","","false","[""d"",""k""]","d","3000","true","1","100","0","0","0","3","1","-1","2","300","300","[""hsl(0, 50%, 50%)"",""hsl(225, 50%, 50%)""]","[""hsl(0, 50%, 50%)"",""hsl(225, 50%, 50%)""]","0.5","0.52","0","circle","black","3","2","2","16.75531914893617","[6,18,16,17,17,17,17,17,17,16,17,17,16,17,17,17,16,17,17,17,17,17,16,17,17,17,17,17,17,17,17,17,17,16,17,17,17,17,16,17,17,17,17,17,17,16,17,17,17,16,17,17,17,17,17,17,17,17,17,17,17,17,16,17,17,17,17,17,17,17,17,17,17,17,15,17,17,16,18,16,17,17,17,17,17,17,17,17,17,17,17,17,17,17]","94","960","482","false","20","20","black","1","false","1","1","1920","964","d","staircase_color","","","","",""
"","","","","","html-keyboard-response","131","1730465","0.0-5.0-1.0-1.0-0.0-3.0-0.0-0.0-2.4","null","","null","<p style='font-size: 60px; color: red'>错误!</p>","","","","","","","","","","","","","","","","","","","","","","","","","","","","","","","","","","","","","","","","","","","","","","","",""
"","","","","","html-keyboard-response","132","1731398","0.0-5.0-1.0-1.0-0.0-3.0-0.0-0.0-0.5","null","fixation","null","<p style='font-size: 48px; color: white'>+</p >","","","","","","","","","","","","","","","","","","","","","","","","","","","","","","","","","","","","","","","","","","","","","","","",""
"","","","","","rdk","133","1732750","0.0-5.0-1.0-1.0-0.0-3.0-0.0-0.0-1.5","927","color_test","k","","true","[""d"",""k""]","k","3000","true","1","100","0","0","0","3","1","-1","2","300","300","[""hsl(0, 50%, 50%)"",""hsl(225, 50%, 50%)""]","[""hsl(225, 50%, 50%)"",""hsl(0, 50%, 50%)""]","0.5","0.52","0","circle","black","3","2","2","16.678571428571427","[5,18,17,17,17,17,16,17,17,16,17,17,15,17,17,16,18,17,17,17,17,17,15,17,18,17,17,17,17,17,17,17,17,17,17,17,17,17,17,17,17,16,17,17,17,17,17,17,17,17,16,17,17,17,17,17]","56","960","482","false","20","20","black","1","false","1","1","1920","964","k","staircase_color","","","","",""
"","","","","","html-keyboard-response","134","1733681","0.0-5.0-1.0-1.0-0.0-3.0-0.0-0.0-2.5","null","","null","<p style='font-size: 60px; color: green'>正确!</p>","","","","","","","","","","","","","","","","","","","","","","","","","","","","","","","","","","","","","","","","","","","","","","","",""
"","","","","","html-keyboard-response","135","1734615","0.0-5.0-1.0-1.0-0.0-3.0-0.0-0.0-0.6","null","fixation","null","<p style='font-size: 48px; color: white'>+</p >","","","","","","","","","","","","","","","","","","","","","","","","","","","","","","","","","","","","","","","","","","","","","","","",""
"","","","","","rdk","136","1736448","0.0-5.0-1.0-1.0-0.0-3.0-0.0-0.0-1.6","1410","color_test","d","","false","[""d"",""k""]","k","3000","true","1","100","0","0","0","3","1","-1","2","300","300","[""hsl(0, 50%, 50%)"",""hsl(225, 50%, 50%)""]","[""hsl(225, 50%, 50%)"",""hsl(0, 50%, 50%)""]","0.5","0.52","0","circle","black","3","2","2","16.705882352941178","[7,18,17,17,17,17,17,17,17,16,17,17,17,17,16,17,17,16,17,17,17,17,17,17,17,16,17,17,17,16,17,17,17,17,17,17,16,17,17,17,17,16,17,17,17,17,17,16,17,16,17,17,17,17,17,17,17,17,17,16,17,17,17,17,17,16,17,16,17,15,17,17,16,17,16,18,17,17,17,16,17,17,17,17,17]","85","960","482","false","20","20","black","1","false","1","1","1920","964","k","staircase_color","","","","",""
"","","","","","html-keyboard-response","137","1737383","0.0-5.0-1.0-1.0-0.0-3.0-0.0-0.0-2.6","null","","null","<p style='font-size: 60px; color: red'>错误!</p>","","","","","","","","","","","","","","","","","","","","","","","","","","","","","","","","","","","","","","","","","","","","","","","",""
"","","","","","html-keyboard-response","138","1738315","0.0-5.0-1.0-1.0-0.0-3.0-0.0-0.0-0.7","null","fixation","null","<p style='font-size: 48px; color: white'>+</p >","","","","","","","","","","","","","","","","","","","","","","","","","","","","","","","","","","","","","","","","","","","","","","","",""
"","","","","","rdk","139","1740149","0.0-5.0-1.0-1.0-0.0-3.0-0.0-0.0-1.7","1411","color_test","d","","true","[""d"",""k""]","d","3000","true","1","100","0","0","0","3","1","-1","2","300","300","[""hsl(0, 50%, 50%)"",""hsl(225, 50%, 50%)""]","[""hsl(0, 50%, 50%)"",""hsl(225, 50%, 50%)""]","0.5","0.52","0","circle","black","3","2","2","16.694117647058825","[6,18,17,15,17,17,17,17,17,17,17,17,17,17,17,17,17,16,17,16,17,17,16,16,17,17,16,17,17,17,17,17,16,17,17,17,16,17,17,17,17,17,16,17,17,17,17,17,16,17,17,17,17,17,17,17,17,17,17,16,17,17,17,17,17,17,17,17,17,16,17,16,17,17,17,17,17,17,17,17,15,17,17,18,16]","85","960","482","false","20","20","black","1","false","1","1","1920","964","d","staircase_color","","","","",""
"","","","","","html-keyboard-response","140","1741080","0.0-5.0-1.0-1.0-0.0-3.0-0.0-0.0-2.7","null","","null","<p style='font-size: 60px; color: green'>正确!</p>","","","","","","","","","","","","","","","","","","","","","","","","","","","","","","","","","","","","","","","","","","","","","","","",""
"","","","","","html-keyboard-response","141","1742014","0.0-5.0-1.0-1.0-0.0-3.0-0.0-0.0-0.8","null","fixation","null","<p style='font-size: 48px; color: white'>+</p >","","","","","","","","","","","","","","","","","","","","","","","","","","","","","","","","","","","","","","","","","","","","","","","",""
"","","","","","rdk","142","1743198","0.0-5.0-1.0-1.0-0.0-3.0-0.0-0.0-1.8","759","color_test","k","","true","[""d"",""k""]","k","3000","true","1","100","0","0","0","3","1","-1","2","300","300","[""hsl(0, 50%, 50%)"",""hsl(225, 50%, 50%)""]","[""hsl(225, 50%, 50%)"",""hsl(0, 50%, 50%)""]","0.5","0.52","0","circle","black","3","2","2","16.717391304347824","[6,16,17,17,17,17,17,17,17,17,17,17,17,17,17,17,17,17,17,17,17,17,17,17,17,17,17,17,17,17,17,17,17,16,17,17,17,17,17,17,17,17,17,17,17,17]","46","960","482","false","20","20","black","1","false","1","1","1920","964","k","staircase_color","","","","",""
"","","","","","html-keyboard-response","143","1744131","0.0-5.0-1.0-1.0-0.0-3.0-0.0-0.0-2.8","null","","null","<p style='font-size: 60px; color: green'>正确!</p>","","","","","","","","","","","","","","","","","","","","","","","","","","","","","","","","","","","","","","","","","","","","","","","",""
"","","","","","html-keyboard-response","144","1745064","0.0-5.0-1.0-1.0-0.0-3.0-0.0-0.0-0.9","null","fixation","null","<p style='font-size: 48px; color: white'>+</p >","","","","","","","","","","","","","","","","","","","","","","","","","","","","","","","","","","","","","","","","","","","","","","","",""
"","","","","","rdk","145","1746438","0.0-5.0-1.0-1.0-0.0-3.0-0.0-0.0-1.9","949","color_test","d","","false","[""d"",""k""]","k","3000","true","1","100","0","0","0","3","1","-1","2","300","300","[""hsl(0, 50%, 50%)"",""hsl(225, 50%, 50%)""]","[""hsl(225, 50%, 50%)"",""hsl(0, 50%, 50%)""]","0.5","0.52","0","circle","black","3","2","2","16.68421052631579","[5,18,16,17,17,18,16,17,18,16,17,16,17,17,17,17,16,17,17,17,16,17,17,17,16,17,17,16,17,17,16,17,17,17,17,17,17,17,17,17,17,17,17,17,17,17,17,17,17,17,17,17,17,17,17,17,17]","57","960","482","false","20","20","black","1","false","1","1","1920","964","k","staircase_color","","","","",""
"","","","","","html-keyboard-response","146","1747365","0.0-5.0-1.0-1.0-0.0-3.0-0.0-0.0-2.9","null","","null","<p style='font-size: 60px; color: red'>错误!</p>","","","","","","","","","","","","","","","","","","","","","","","","","","","","","","","","","","","","","","","","","","","","","","","",""
"","","","","","html-keyboard-response","147","1748298","0.0-5.0-1.0-1.0-0.0-3.0-0.0-0.0-0.10","null","fixation","null","<p style='font-size: 48px; color: white'>+</p >","","","","","","","","","","","","","","","","","","","","","","","","","","","","","","","","","","","","","","","","","","","","","","","",""
"","","","","","rdk","148","1749454","0.0-5.0-1.0-1.0-0.0-3.0-0.0-0.0-1.10","732","color_test","d","","true","[""d"",""k""]","d","3000","true","1","100","0","0","0","3","1","-1","2","300","300","[""hsl(0, 50%, 50%)"",""hsl(225, 50%, 50%)""]","[""hsl(0, 50%, 50%)"",""hsl(225, 50%, 50%)""]","0.5","0.52","0","circle","black","3","2","2","16.636363636363637","[6,17,17,17,17,16,17,17,17,17,17,17,17,17,17,17,17,17,17,17,17,16,17,16,17,17,17,17,17,16,17,17,17,16,17,17,17,17,17,17,17,17,17,17]","44","960","482","false","20","20","black","1","false","1","1","1920","964","d","staircase_color","","","","",""
"","","","","","html-keyboard-response","149","1750381","0.0-5.0-1.0-1.0-0.0-3.0-0.0-0.0-2.10","null","","null","<p style='font-size: 60px; color: green'>正确!</p>","","","","","","","","","","","","","","","","","","","","","","","","","","","","","","","","","","","","","","","","","","","","","","","",""
"","","","","","html-keyboard-response","150","1751315","0.0-5.0-1.0-1.0-0.0-3.0-0.0-0.0-0.11","null","fixation","null","<p style='font-size: 48px; color: white'>+</p >","","","","","","","","","","","","","","","","","","","","","","","","","","","","","","","","","","","","","","","","","","","","","","","",""
"","","","","","rdk","151","1752550","0.0-5.0-1.0-1.0-0.0-3.0-0.0-0.0-1.11","811","color_test","d","","true","[""d"",""k""]","d","3000","true","1","100","0","0","0","3","1","-1","2","300","300","[""hsl(0, 50%, 50%)"",""hsl(225, 50%, 50%)""]","[""hsl(0, 50%, 50%)"",""hsl(225, 50%, 50%)""]","0.5","0.52","0","circle","black","3","2","2","16.591836734693878","[6,17,17,17,17,17,17,17,17,16,17,17,17,17,16,17,17,15,17,17,16,17,17,17,18,17,17,17,16,16,17,17,17,17,17,16,17,17,17,16,17,17,17,17,17,17,16,17,17]","49","960","482","false","20","20","black","1","false","1","1","1920","964","d","staircase_color","","","","",""
"","","","","","html-keyboard-response","152","1753480","0.0-5.0-1.0-1.0-0.0-3.0-0.0-0.0-2.11","null","","null","<p style='font-size: 60px; color: green'>正确!</p>","","","","","","","","","","","","","","","","","","","","","","","","","","","","","","","","","","","","","","","","","","","","","","","",""
"","","","","","html-keyboard-response","153","1755913","0.0-5.0-1.0-1.0-0.0-3.0-0.0-1.0","null","","null","<p style='font-size: 35px; color: white'>您的正确率为： 50% 。平均反应时为：1037毫秒。</p>","","","","","","","","","","","","","","","","","","","","","","","","","","","","","","","","","","","","","","","","","","","","","","","",""
"","","","","","html-keyboard-response","154","1756848","0.0-5.0-1.0-1.0-0.0-4.0-0.0-0.0-0.0","null","fixation","null","<p style='font-size: 48px; color: white'>+</p >","","","","","","","","","","","","","","","","","","","","","","","","","","","","","","","","","","","","","","","","","","","","","","","",""
"","","","","","rdk","155","1758334","0.0-5.0-1.0-1.0-0.0-4.0-0.0-0.0-1.0","1063","color_test","k","","true","[""d"",""k""]","k","3000","true","1","100","0","0","0","3","1","-1","2","300","300","[""hsl(0, 50%, 50%)"",""hsl(225, 50%, 50%)""]","[""hsl(225, 50%, 50%)"",""hsl(0, 50%, 50%)""]","0.5","0.54","0","circle","black","3","2","2","16.71875","[7,18,16,17,17,15,17,17,17,17,17,18,17,16,17,17,17,17,17,17,17,16,17,17,17,17,17,17,17,17,17,16,17,17,17,17,17,17,16,17,17,17,17,17,17,16,17,17,17,17,17,16,17,16,17,17,17,17,17,17,17,17,17,17]","64","960","482","false","20","20","black","1","false","1","1","1920","964","k","staircase_color","","","","",""
"","","","","","html-keyboard-response","156","1759265","0.0-5.0-1.0-1.0-0.0-4.0-0.0-0.0-2.0","null","","null","<p style='font-size: 60px; color: green'>正确!</p>","","","","","","","","","","","","","","","","","","","","","","","","","","","","","","","","","","","","","","","","","","","","","","","",""
"","","","","","html-keyboard-response","157","1760198","0.0-5.0-1.0-1.0-0.0-4.0-0.0-0.0-0.1","null","fixation","null","<p style='font-size: 48px; color: white'>+</p >","","","","","","","","","","","","","","","","","","","","","","","","","","","","","","","","","","","","","","","","","","","","","","","",""
"","","","","","rdk","158","1761438","0.0-5.0-1.0-1.0-0.0-4.0-0.0-0.0-1.1","817","color_test","d","","true","[""d"",""k""]","d","3000","true","1","100","0","0","0","3","1","-1","2","300","300","[""hsl(0, 50%, 50%)"",""hsl(225, 50%, 50%)""]","[""hsl(0, 50%, 50%)"",""hsl(225, 50%, 50%)""]","0.5","0.54","0","circle","black","3","2","2","16.551020408163264","[6,17,17,16,17,16,17,17,17,16,17,16,17,17,17,17,17,16,17,17,17,17,17,16,16,17,17,17,17,17,17,17,16,17,17,17,17,17,17,16,17,17,16,17,17,17,16,17,17]","49","960","482","false","20","20","black","1","false","1","1","1920","964","d","staircase_color","","","","",""
"","","","","","html-keyboard-response","159","1762364","0.0-5.0-1.0-1.0-0.0-4.0-0.0-0.0-2.1","null","","null","<p style='font-size: 60px; color: green'>正确!</p>","","","","","","","","","","","","","","","","","","","","","","","","","","","","","","","","","","","","","","","","","","","","","","","",""
"","","","","","html-keyboard-response","160","1763296","0.0-5.0-1.0-1.0-0.0-4.0-0.0-0.0-0.2","null","fixation","null","<p style='font-size: 48px; color: white'>+</p >","","","","","","","","","","","","","","","","","","","","","","","","","","","","","","","","","","","","","","","","","","","","","","","",""
"","","","","","rdk","161","1764790","0.0-5.0-1.0-1.0-0.0-4.0-0.0-0.0-1.2","1068","color_test","d","","true","[""d"",""k""]","d","3000","true","1","100","0","0","0","3","1","-1","2","300","300","[""hsl(0, 50%, 50%)"",""hsl(225, 50%, 50%)""]","[""hsl(0, 50%, 50%)"",""hsl(225, 50%, 50%)""]","0.5","0.54","0","circle","black","3","2","2","16.6875","[5,18,15,17,17,17,17,17,17,17,17,17,17,17,17,17,17,17,17,17,17,17,17,17,17,17,17,16,17,17,17,17,17,17,17,15,17,17,17,17,17,17,17,17,17,16,17,17,17,17,17,17,17,17,16,17,16,17,17,17,16,17,17,17]","64","960","482","false","20","20","black","1","false","1","1","1920","964","d","staircase_color","","","","",""
"","","","","","html-keyboard-response","162","1765715","0.0-5.0-1.0-1.0-0.0-4.0-0.0-0.0-2.2","null","","null","<p style='font-size: 60px; color: green'>正确!</p>","","","","","","","","","","","","","","","","","","","","","","","","","","","","","","","","","","","","","","","","","","","","","","","",""
"","","","","","html-keyboard-response","163","1766648","0.0-5.0-1.0-1.0-0.0-4.0-0.0-0.0-0.3","null","fixation","null","<p style='font-size: 48px; color: white'>+</p >","","","","","","","","","","","","","","","","","","","","","","","","","","","","","","","","","","","","","","","","","","","","","","","",""
"","","","","","rdk","164","1768038","0.0-5.0-1.0-1.0-0.0-4.0-0.0-0.0-1.3","966","color_test","k","","true","[""d"",""k""]","k","3000","true","1","100","0","0","0","3","1","-1","2","300","300","[""hsl(0, 50%, 50%)"",""hsl(225, 50%, 50%)""]","[""hsl(225, 50%, 50%)"",""hsl(0, 50%, 50%)""]","0.5","0.54","0","circle","black","3","2","2","16.67241379310345","[6,18,17,17,17,17,17,17,17,17,17,16,17,17,17,17,17,16,17,17,17,17,16,17,16,17,16,17,17,17,17,17,16,17,17,16,17,17,17,17,17,17,17,17,17,17,17,17,17,16,17,17,17,17,17,16,17,17]","58","960","482","false","20","20","black","1","false","1","1","1920","964","k","staircase_color","","","","",""
"","","","","","html-keyboard-response","165","1768964","0.0-5.0-1.0-1.0-0.0-4.0-0.0-0.0-2.3","null","","null","<p style='font-size: 60px; color: green'>正确!</p>","","","","","","","","","","","","","","","","","","","","","","","","","","","","","","","","","","","","","","","","","","","","","","","",""
"","","","","","html-keyboard-response","166","1769897","0.0-5.0-1.0-1.0-0.0-4.0-0.0-0.0-0.4","null","fixation","null","<p style='font-size: 48px; color: white'>+</p >","","","","","","","","","","","","","","","","","","","","","","","","","","","","","","","","","","","","","","","","","","","","","","","",""
"","","","","","rdk","167","1771277","0.0-5.0-1.0-1.0-0.0-4.0-0.0-0.0-1.4","954","color_test","k","","true","[""d"",""k""]","k","3000","true","1","100","0","0","0","3","1","-1","2","300","300","[""hsl(0, 50%, 50%)"",""hsl(225, 50%, 50%)""]","[""hsl(225, 50%, 50%)"",""hsl(0, 50%, 50%)""]","0.5","0.54","0","circle","black","3","2","2","16.70175438596491","[6,15,17,17,16,17,17,17,17,16,17,17,17,17,17,17,17,17,17,17,17,17,17,17,17,17,17,17,17,17,17,17,17,17,17,17,17,17,17,17,17,17,17,17,17,16,17,17,17,17,17,17,17,16,17,17,17]","57","960","482","false","20","20","black","1","false","1","1","1920","964","k","staircase_color","","","","",""
"","","","","","html-keyboard-response","168","1772197","0.0-5.0-1.0-1.0-0.0-4.0-0.0-0.0-2.4","null","","null","<p style='font-size: 60px; color: green'>正确!</p>","","","","","","","","","","","","","","","","","","","","","","","","","","","","","","","","","","","","","","","","","","","","","","","",""
"","","","","","html-keyboard-response","169","1773131","0.0-5.0-1.0-1.0-0.0-4.0-0.0-0.0-0.5","null","fixation","null","<p style='font-size: 48px; color: white'>+</p >","","","","","","","","","","","","","","","","","","","","","","","","","","","","","","","","","","","","","","","","","","","","","","","",""
"","","","","","rdk","170","1774502","0.0-5.0-1.0-1.0-0.0-4.0-0.0-0.0-1.5","947","color_test","d","","true","[""d"",""k""]","d","3000","true","1","100","0","0","0","3","1","-1","2","300","300","[""hsl(0, 50%, 50%)"",""hsl(225, 50%, 50%)""]","[""hsl(0, 50%, 50%)"",""hsl(225, 50%, 50%)""]","0.5","0.54","0","circle","black","3","2","2","16.666666666666668","[6,17,17,16,17,17,17,16,17,16,17,17,17,17,17,17,17,17,17,17,17,17,17,17,16,17,17,17,17,17,17,16,17,17,17,17,17,17,17,16,17,17,17,17,17,17,16,17,16,17,17,17,17,17,17,17,17]","57","960","482","false","20","20","black","1","false","1","1","1920","964","d","staircase_color","","","","",""
"","","","","","html-keyboard-response","171","1775430","0.0-5.0-1.0-1.0-0.0-4.0-0.0-0.0-2.5","null","","null","<p style='font-size: 60px; color: green'>正确!</p>","","","","","","","","","","","","","","","","","","","","","","","","","","","","","","","","","","","","","","","","","","","","","","","",""
"","","","","","html-keyboard-response","172","1776364","0.0-5.0-1.0-1.0-0.0-4.0-0.0-0.0-0.6","null","fixation","null","<p style='font-size: 48px; color: white'>+</p >","","","","","","","","","","","","","","","","","","","","","","","","","","","","","","","","","","","","","","","","","","","","","","","",""
"","","","","","rdk","173","1777631","0.0-5.0-1.0-1.0-0.0-4.0-0.0-0.0-1.6","843","color_test","k","","true","[""d"",""k""]","k","3000","true","1","100","0","0","0","3","1","-1","2","300","300","[""hsl(0, 50%, 50%)"",""hsl(225, 50%, 50%)""]","[""hsl(225, 50%, 50%)"",""hsl(0, 50%, 50%)""]","0.5","0.54","0","circle","black","3","2","2","16.666666666666668","[5,16,17,17,17,17,18,16,17,17,16,17,17,17,17,17,17,17,16,17,17,17,17,17,17,17,17,17,16,17,16,17,17,17,17,17,17,17,17,17,17,16,17,17,17,17,17,17,17,17,18]","51","960","482","false","20","20","black","1","false","1","1","1920","964","k","staircase_color","","","","",""
"","","","","","html-keyboard-response","174","1778565","0.0-5.0-1.0-1.0-0.0-4.0-0.0-0.0-2.6","null","","null","<p style='font-size: 60px; color: green'>正确!</p>","","","","","","","","","","","","","","","","","","","","","","","","","","","","","","","","","","","","","","","","","","","","","","","",""
"","","","","","html-keyboard-response","175","1779496","0.0-5.0-1.0-1.0-0.0-4.0-0.0-0.0-0.7","null","fixation","null","<p style='font-size: 48px; color: white'>+</p >","","","","","","","","","","","","","","","","","","","","","","","","","","","","","","","","","","","","","","","","","","","","","","","",""
"","","","","","rdk","176","1780726","0.0-5.0-1.0-1.0-0.0-4.0-0.0-0.0-1.7","804","color_test","d","","true","[""d"",""k""]","d","3000","true","1","100","0","0","0","3","1","-1","2","300","300","[""hsl(0, 50%, 50%)"",""hsl(225, 50%, 50%)""]","[""hsl(0, 50%, 50%)"",""hsl(225, 50%, 50%)""]","0.5","0.54","0","circle","black","3","2","2","16.6875","[5,18,17,17,17,17,17,17,17,16,17,17,17,17,17,17,17,17,16,17,17,17,17,17,17,17,17,17,17,17,17,17,17,17,17,16,17,17,17,17,17,16,17,17,17,17,17,17]","48","960","482","false","20","20","black","1","false","1","1","1920","964","d","staircase_color","","","","",""
"","","","","","html-keyboard-response","177","1781648","0.0-5.0-1.0-1.0-0.0-4.0-0.0-0.0-2.7","null","","null","<p style='font-size: 60px; color: green'>正确!</p>","","","","","","","","","","","","","","","","","","","","","","","","","","","","","","","","","","","","","","","","","","","","","","","",""
"","","","","","html-keyboard-response","178","1782581","0.0-5.0-1.0-1.0-0.0-4.0-0.0-0.0-0.8","null","fixation","null","<p style='font-size: 48px; color: white'>+</p >","","","","","","","","","","","","","","","","","","","","","","","","","","","","","","","","","","","","","","","","","","","","","","","",""
"","","","","","rdk","179","1784006","0.0-5.0-1.0-1.0-0.0-4.0-0.0-0.0-1.8","1001","color_test","k","","true","[""d"",""k""]","k","3000","true","1","100","0","0","0","3","1","-1","2","300","300","[""hsl(0, 50%, 50%)"",""hsl(225, 50%, 50%)""]","[""hsl(225, 50%, 50%)"",""hsl(0, 50%, 50%)""]","0.5","0.54","0","circle","black","3","2","2","16.666666666666668","[7,15,17,17,16,17,17,17,17,17,17,17,17,16,17,16,18,16,17,17,18,16,16,17,16,17,17,16,17,17,16,17,17,16,17,18,16,17,17,17,17,17,17,17,17,17,17,17,17,17,17,17,17,17,17,17,17,17,17,17]","60","960","482","false","20","20","black","1","false","1","1","1920","964","k","staircase_color","","","","",""
"","","","","","html-keyboard-response","180","1784932","0.0-5.0-1.0-1.0-0.0-4.0-0.0-0.0-2.8","null","","null","<p style='font-size: 60px; color: green'>正确!</p>","","","","","","","","","","","","","","","","","","","","","","","","","","","","","","","","","","","","","","","","","","","","","","","",""
"","","","","","html-keyboard-response","181","1785864","0.0-5.0-1.0-1.0-0.0-4.0-0.0-0.0-0.9","null","fixation","null","<p style='font-size: 48px; color: white'>+</p >","","","","","","","","","","","","","","","","","","","","","","","","","","","","","","","","","","","","","","","","","","","","","","","",""
"","","","","","rdk","182","1787574","0.0-5.0-1.0-1.0-0.0-4.0-0.0-0.0-1.9","1286","color_test","k","","true","[""d"",""k""]","k","3000","true","1","100","0","0","0","3","1","-1","2","300","300","[""hsl(0, 50%, 50%)"",""hsl(225, 50%, 50%)""]","[""hsl(225, 50%, 50%)"",""hsl(0, 50%, 50%)""]","0.5","0.54","0","circle","black","3","2","2","16.675324675324674","[6,18,17,16,17,17,17,17,16,16,17,17,16,17,17,17,17,16,17,17,16,17,16,17,17,17,17,17,17,17,16,17,16,17,17,17,17,17,16,17,17,17,17,16,17,17,17,16,17,17,17,17,17,17,17,17,17,16,17,17,17,17,17,17,17,16,17,17,17,17,17,17,16,17,17,17,17]","77","960","482","false","20","20","black","1","false","1","1","1920","964","k","staircase_color","","","","",""
"","","","","","html-keyboard-response","183","1788498","0.0-5.0-1.0-1.0-0.0-4.0-0.0-0.0-2.9","null","","null","<p style='font-size: 60px; color: green'>正确!</p>","","","","","","","","","","","","","","","","","","","","","","","","","","","","","","","","","","","","","","","","","","","","","","","",""
"","","","","","html-keyboard-response","184","1789430","0.0-5.0-1.0-1.0-0.0-4.0-0.0-0.0-0.10","null","fixation","null","<p style='font-size: 48px; color: white'>+</p >","","","","","","","","","","","","","","","","","","","","","","","","","","","","","","","","","","","","","","","","","","","","","","","",""
"","","","","","rdk","185","1790582","0.0-5.0-1.0-1.0-0.0-4.0-0.0-0.0-1.10","727","color_test","d","","true","[""d"",""k""]","d","3000","true","1","100","0","0","0","3","1","-1","2","300","300","[""hsl(0, 50%, 50%)"",""hsl(225, 50%, 50%)""]","[""hsl(0, 50%, 50%)"",""hsl(225, 50%, 50%)""]","0.5","0.54","0","circle","black","3","2","2","16.568181818181817","[5,18,17,17,16,17,17,17,17,16,17,17,16,17,17,17,17,16,17,17,17,17,17,16,17,17,17,17,17,17,17,16,17,17,16,17,17,17,17,16,17,17,17,17]","44","960","482","false","20","20","black","1","false","1","1","1920","964","d","staircase_color","","","","",""
"","","","","","html-keyboard-response","186","1791514","0.0-5.0-1.0-1.0-0.0-4.0-0.0-0.0-2.10","null","","null","<p style='font-size: 60px; color: green'>正确!</p>","","","","","","","","","","","","","","","","","","","","","","","","","","","","","","","","","","","","","","","","","","","","","","","",""
"","","","","","html-keyboard-response","187","1792448","0.0-5.0-1.0-1.0-0.0-4.0-0.0-0.0-0.11","null","fixation","null","<p style='font-size: 48px; color: white'>+</p >","","","","","","","","","","","","","","","","","","","","","","","","","","","","","","","","","","","","","","","","","","","","","","","",""
"","","","","","rdk","188","1793478","0.0-5.0-1.0-1.0-0.0-4.0-0.0-0.0-1.11","607","color_test","d","","true","[""d"",""k""]","d","3000","true","1","100","0","0","0","3","1","-1","2","300","300","[""hsl(0, 50%, 50%)"",""hsl(225, 50%, 50%)""]","[""hsl(0, 50%, 50%)"",""hsl(225, 50%, 50%)""]","0.5","0.54","0","circle","black","3","2","2","16.555555555555557","[6,17,17,17,17,17,17,17,17,16,17,17,17,17,17,16,17,17,17,17,16,17,15,17,17,17,17,17,18,16,17,17,17,17,17,17]","36","960","482","false","20","20","black","1","false","1","1","1920","964","d","staircase_color","","","","",""
"","","","","","html-keyboard-response","189","1794415","0.0-5.0-1.0-1.0-0.0-4.0-0.0-0.0-2.11","null","","null","<p style='font-size: 60px; color: green'>正确!</p>","","","","","","","","","","","","","","","","","","","","","","","","","","","","","","","","","","","","","","","","","","","","","","","",""
"","","","","","html-keyboard-response","190","1796847","0.0-5.0-1.0-1.0-0.0-4.0-0.0-1.0","null","","null","<p style='font-size: 35px; color: white'>您的正确率为： 100% 。平均反应时为：924毫秒。</p>","","","","","","","","","","","","","","","","","","","","","","","","","","","","","","","","","","","","","","","","","","","","","","","",""
"","","","","","html-keyboard-response","191","1797773","0.0-5.0-1.0-1.0-0.0-5.0-0.0-0.0-0.0","null","fixation","null","<p style='font-size: 48px; color: white'>+</p >","","","","","","","","","","","","","","","","","","","","","","","","","","","","","","","","","","","","","","","","","","","","","","","",""
"","","","","","rdk","192","1799150","0.0-5.0-1.0-1.0-0.0-5.0-0.0-0.0-1.0","961","color_test","d","","false","[""d"",""k""]","k","3000","true","1","100","0","0","0","3","1","-1","2","300","300","[""hsl(0, 50%, 50%)"",""hsl(225, 50%, 50%)""]","[""hsl(225, 50%, 50%)"",""hsl(0, 50%, 50%)""]","0.5","0.52","0","circle","black","3","2","2","16.724137931034484","[6,16,17,17,17,16,17,17,17,17,17,16,17,17,17,17,17,17,17,17,17,17,17,17,17,16,17,17,17,17,17,17,16,18,16,17,17,17,17,17,17,17,17,17,17,17,17,17,17,17,17,17,17,17,17,17,17,17]","58","960","482","false","20","20","black","1","false","1","1","1920","964","k","staircase_color","","","","",""
"","","","","","html-keyboard-response","193","1800080","0.0-5.0-1.0-1.0-0.0-5.0-0.0-0.0-2.0","null","","null","<p style='font-size: 60px; color: red'>错误!</p>","","","","","","","","","","","","","","","","","","","","","","","","","","","","","","","","","","","","","","","","","","","","","","","",""
"","","","","","html-keyboard-response","194","1801013","0.0-5.0-1.0-1.0-0.0-5.0-0.0-0.0-0.1","null","fixation","null","<p style='font-size: 48px; color: white'>+</p >","","","","","","","","","","","","","","","","","","","","","","","","","","","","","","","","","","","","","","","","","","","","","","","",""
"","","","","","rdk","195","1802261","0.0-5.0-1.0-1.0-0.0-5.0-0.0-0.0-1.1","822","color_test","d","","true","[""d"",""k""]","d","3000","true","1","100","0","0","0","3","1","-1","2","300","300","[""hsl(0, 50%, 50%)"",""hsl(225, 50%, 50%)""]","[""hsl(0, 50%, 50%)"",""hsl(225, 50%, 50%)""]","0.5","0.52","0","circle","black","3","2","2","16.551020408163264","[5,18,17,15,17,17,17,17,17,17,16,17,17,17,17,17,17,17,16,17,16,17,17,17,16,17,16,17,16,17,17,15,17,17,17,16,17,17,17,17,17,17,17,17,17,17,17,17,17]","49","960","482","false","20","20","black","1","false","1","1","1920","964","d","staircase_color","","","","",""
"","","","","","html-keyboard-response","196","1803182","0.0-5.0-1.0-1.0-0.0-5.0-0.0-0.0-2.1","null","","null","<p style='font-size: 60px; color: green'>正确!</p>","","","","","","","","","","","","","","","","","","","","","","","","","","","","","","","","","","","","","","","","","","","","","","","",""
"","","","","","html-keyboard-response","197","1804116","0.0-5.0-1.0-1.0-0.0-5.0-0.0-0.0-0.2","null","fixation","null","<p style='font-size: 48px; color: white'>+</p >","","","","","","","","","","","","","","","","","","","","","","","","","","","","","","","","","","","","","","","","","","","","","","","",""
"","","","","","rdk","198","1805493","0.0-5.0-1.0-1.0-0.0-5.0-0.0-0.0-1.2","955","color_test","k","","true","[""d"",""k""]","k","3000","true","1","100","0","0","0","3","1","-1","2","300","300","[""hsl(0, 50%, 50%)"",""hsl(225, 50%, 50%)""]","[""hsl(225, 50%, 50%)"",""hsl(0, 50%, 50%)""]","0.5","0.52","0","circle","black","3","2","2","16.57894736842105","[6,17,17,16,17,17,17,16,17,16,17,17,16,17,17,17,17,17,17,16,17,17,17,16,17,17,17,16,17,17,16,17,17,17,16,17,17,15,18,17,16,16,17,17,17,17,17,17,17,17,17,17,18,16,16,17,17]","57","960","482","false","20","20","black","1","false","1","1","1920","964","k","staircase_color","","","","",""
"","","","","","html-keyboard-response","199","1806416","0.0-5.0-1.0-1.0-0.0-5.0-0.0-0.0-2.2","null","","null","<p style='font-size: 60px; color: green'>正确!</p>","","","","","","","","","","","","","","","","","","","","","","","","","","","","","","","","","","","","","","","","","","","","","","","",""
"","","","","","html-keyboard-response","200","1807348","0.0-5.0-1.0-1.0-0.0-5.0-0.0-0.0-0.3","null","fixation","null","<p style='font-size: 48px; color: white'>+</p >","","","","","","","","","","","","","","","","","","","","","","","","","","","","","","","","","","","","","","","","","","","","","","","",""
"","","","","","rdk","201","1809038","0.0-5.0-1.0-1.0-0.0-5.0-0.0-0.0-1.3","1266","color_test","k","","false","[""d"",""k""]","d","3000","true","1","100","0","0","0","3","1","-1","2","300","300","[""hsl(0, 50%, 50%)"",""hsl(225, 50%, 50%)""]","[""hsl(0, 50%, 50%)"",""hsl(225, 50%, 50%)""]","0.5","0.52","0","circle","black","3","2","2","16.68421052631579","[6,17,16,17,17,18,16,17,17,16,17,17,17,17,16,16,17,17,17,17,17,16,17,17,17,17,17,17,17,17,17,17,17,17,16,17,16,17,16,17,17,16,18,16,17,17,17,16,16,17,17,17,17,17,16,17,17,18,16,18,16,17,18,16,16,17,17,17,16,17,17,17,17,17,17,18]","76","960","482","false","20","20","black","1","false","1","1","1920","964","d","staircase_color","","","","",""
"","","","","","html-keyboard-response","202","1809965","0.0-5.0-1.0-1.0-0.0-5.0-0.0-0.0-2.3","null","","null","<p style='font-size: 60px; color: red'>错误!</p>","","","","","","","","","","","","","","","","","","","","","","","","","","","","","","","","","","","","","","","","","","","","","","","",""
"","","","","","html-keyboard-response","203","1810882","0.0-5.0-1.0-1.0-0.0-5.0-0.0-0.0-0.4","null","fixation","null","<p style='font-size: 48px; color: white'>+</p >","","","","","","","","","","","","","","","","","","","","","","","","","","","","","","","","","","","","","","","","","","","","","","","",""
"","","","","","rdk","204","1812415","0.0-5.0-1.0-1.0-0.0-5.0-0.0-0.0-1.4","1109","color_test","d","","false","[""d"",""k""]","k","3000","true","1","100","0","0","0","3","1","-1","2","300","300","[""hsl(0, 50%, 50%)"",""hsl(225, 50%, 50%)""]","[""hsl(225, 50%, 50%)"",""hsl(0, 50%, 50%)""]","0.5","0.52","0","circle","black","3","2","2","16.65671641791045","[7,15,17,16,17,17,16,18,16,17,17,16,17,16,17,17,17,17,17,18,16,16,17,17,17,17,17,17,17,17,17,17,17,17,17,17,17,17,16,18,16,17,17,16,16,17,17,17,17,17,16,17,17,16,17,17,17,17,17,17,17,17,17,17,17,16,17]","67","960","482","false","20","20","black","1","false","1","1","1920","964","k","staircase_color","","","","",""
"","","","","","html-keyboard-response","205","1813348","0.0-5.0-1.0-1.0-0.0-5.0-0.0-0.0-2.4","null","","null","<p style='font-size: 60px; color: red'>错误!</p>","","","","","","","","","","","","","","","","","","","","","","","","","","","","","","","","","","","","","","","","","","","","","","","",""
"","","","","","html-keyboard-response","206","1814282","0.0-5.0-1.0-1.0-0.0-5.0-0.0-0.0-0.5","null","fixation","null","<p style='font-size: 48px; color: white'>+</p >","","","","","","","","","","","","","","","","","","","","","","","","","","","","","","","","","","","","","","","","","","","","","","","",""
"","","","","","rdk","207","1815695","0.0-5.0-1.0-1.0-0.0-5.0-0.0-0.0-1.5","989","color_test","d","","true","[""d"",""k""]","d","3000","true","1","100","0","0","0","3","1","-1","2","300","300","[""hsl(0, 50%, 50%)"",""hsl(225, 50%, 50%)""]","[""hsl(0, 50%, 50%)"",""hsl(225, 50%, 50%)""]","0.5","0.52","0","circle","black","3","2","2","16.627118644067796","[5,18,17,17,16,17,17,17,17,17,16,17,17,17,17,16,17,17,17,17,17,17,16,17,16,17,17,16,16,17,17,17,17,17,17,17,17,17,17,17,17,17,17,16,16,17,17,17,16,17,17,17,17,17,17,16,17,17,17]","59","960","482","false","20","20","black","1","false","1","1","1920","964","d","staircase_color","","","","",""
"","","","","","html-keyboard-response","208","1816614","0.0-5.0-1.0-1.0-0.0-5.0-0.0-0.0-2.5","null","","null","<p style='font-size: 60px; color: green'>正确!</p>","","","","","","","","","","","","","","","","","","","","","","","","","","","","","","","","","","","","","","","","","","","","","","","",""
"","","","","","html-keyboard-response","209","1817548","0.0-5.0-1.0-1.0-0.0-5.0-0.0-0.0-0.6","null","fixation","null","<p style='font-size: 48px; color: white'>+</p >","","","","","","","","","","","","","","","","","","","","","","","","","","","","","","","","","","","","","","","","","","","","","","","",""
"","","","","","rdk","210","1819048","0.0-5.0-1.0-1.0-0.0-5.0-0.0-0.0-1.6","1075","color_test","k","","true","[""d"",""k""]","k","3000","true","1","100","0","0","0","3","1","-1","2","300","300","[""hsl(0, 50%, 50%)"",""hsl(225, 50%, 50%)""]","[""hsl(225, 50%, 50%)"",""hsl(0, 50%, 50%)""]","0.5","0.52","0","circle","black","3","2","2","16.70769230769231","[5,17,17,17,17,17,16,17,17,16,17,17,17,17,17,16,17,17,17,17,17,17,17,17,17,17,17,17,17,17,17,17,17,17,17,16,17,17,17,17,17,17,17,17,17,17,16,17,17,17,17,17,16,17,17,17,17,17,18,16,17,16,17,17,17]","65","960","482","false","20","20","black","1","false","1","1","1920","964","k","staircase_color","","","","",""
"","","","","","html-keyboard-response","211","1819981","0.0-5.0-1.0-1.0-0.0-5.0-0.0-0.0-2.6","null","","null","<p style='font-size: 60px; color: green'>正确!</p>","","","","","","","","","","","","","","","","","","","","","","","","","","","","","","","","","","","","","","","","","","","","","","","",""
"","","","","","html-keyboard-response","212","1820915","0.0-5.0-1.0-1.0-0.0-5.0-0.0-0.0-0.7","null","fixation","null","<p style='font-size: 48px; color: white'>+</p >","","","","","","","","","","","","","","","","","","","","","","","","","","","","","","","","","","","","","","","","","","","","","","","",""
"","","","","","rdk","213","1822254","0.0-5.0-1.0-1.0-0.0-5.0-0.0-0.0-1.7","915","color_test","k","","false","[""d"",""k""]","d","3000","true","1","100","0","0","0","3","1","-1","2","300","300","[""hsl(0, 50%, 50%)"",""hsl(225, 50%, 50%)""]","[""hsl(0, 50%, 50%)"",""hsl(225, 50%, 50%)""]","0.5","0.52","0","circle","black","3","2","2","16.6","[6,16,17,16,17,17,17,17,15,17,17,17,17,17,17,17,17,17,17,16,17,17,17,17,17,17,17,16,17,17,17,17,17,17,17,17,17,17,17,17,17,15,17,17,17,17,17,17,17,17,17,15,17,16,17]","55","960","482","false","20","20","black","1","false","1","1","1920","964","d","staircase_color","","","","",""
"","","","","","html-keyboard-response","214","1823180","0.0-5.0-1.0-1.0-0.0-5.0-0.0-0.0-2.7","null","","null","<p style='font-size: 60px; color: red'>错误!</p>","","","","","","","","","","","","","","","","","","","","","","","","","","","","","","","","","","","","","","","","","","","","","","","",""
"","","","","","html-keyboard-response","215","1824114","0.0-5.0-1.0-1.0-0.0-5.0-0.0-0.0-0.8","null","fixation","null","<p style='font-size: 48px; color: white'>+</p >","","","","","","","","","","","","","","","","","","","","","","","","","","","","","","","","","","","","","","","","","","","","","","","",""
"","","","","","rdk","216","1825702","0.0-5.0-1.0-1.0-0.0-5.0-0.0-0.0-1.8","1163","color_test","d","","false","[""d"",""k""]","k","3000","true","1","100","0","0","0","3","1","-1","2","300","300","[""hsl(0, 50%, 50%)"",""hsl(225, 50%, 50%)""]","[""hsl(225, 50%, 50%)"",""hsl(0, 50%, 50%)""]","0.5","0.52","0","circle","black","3","2","2","16.757142857142856","[6,16,17,17,16,17,17,17,17,17,17,17,17,17,17,17,17,17,17,17,17,17,17,17,17,17,17,17,17,17,17,17,17,17,17,17,17,17,17,17,17,17,17,17,17,17,17,17,17,17,16,17,17,17,16,17,16,17,17,17,17,16,17,17,17,17,17,17,17,17]","70","960","482","false","20","20","black","1","false","1","1","1920","964","k","staircase_color","","","","",""
"","","","","","html-keyboard-response","217","1826630","0.0-5.0-1.0-1.0-0.0-5.0-0.0-0.0-2.8","null","","null","<p style='font-size: 60px; color: red'>错误!</p>","","","","","","","","","","","","","","","","","","","","","","","","","","","","","","","","","","","","","","","","","","","","","","","",""
"","","","","","html-keyboard-response","218","1827565","0.0-5.0-1.0-1.0-0.0-5.0-0.0-0.0-0.9","null","fixation","null","<p style='font-size: 48px; color: white'>+</p >","","","","","","","","","","","","","","","","","","","","","","","","","","","","","","","","","","","","","","","","","","","","","","","",""
"","","","","","rdk","219","1829134","0.0-5.0-1.0-1.0-0.0-5.0-0.0-0.0-1.9","1145","color_test","d","","true","[""d"",""k""]","d","3000","true","1","100","0","0","0","3","1","-1","2","300","300","[""hsl(0, 50%, 50%)"",""hsl(225, 50%, 50%)""]","[""hsl(0, 50%, 50%)"",""hsl(225, 50%, 50%)""]","0.5","0.52","0","circle","black","3","2","2","16.681159420289855","[6,18,17,17,17,16,17,16,17,16,17,17,17,17,17,17,17,17,16,17,17,17,17,17,17,17,17,16,17,16,17,17,17,17,16,17,17,17,17,16,17,17,17,17,17,16,17,17,17,17,17,17,16,17,17,17,17,17,17,16,17,17,16,17,17,17,17,17,17]","69","960","482","false","20","20","black","1","false","1","1","1920","964","d","staircase_color","","","","",""
"","","","","","html-keyboard-response","220","1830065","0.0-5.0-1.0-1.0-0.0-5.0-0.0-0.0-2.9","null","","null","<p style='font-size: 60px; color: green'>正确!</p>","","","","","","","","","","","","","","","","","","","","","","","","","","","","","","","","","","","","","","","","","","","","","","","",""
"","","","","","html-keyboard-response","221","1830998","0.0-5.0-1.0-1.0-0.0-5.0-0.0-0.0-0.10","null","fixation","null","<p style='font-size: 48px; color: white'>+</p >","","","","","","","","","","","","","","","","","","","","","","","","","","","","","","","","","","","","","","","","","","","","","","","",""
"","","","","","rdk","222","1832750","0.0-5.0-1.0-1.0-0.0-5.0-0.0-0.0-1.10","1328","color_test","k","","true","[""d"",""k""]","k","3000","true","1","100","0","0","0","3","1","-1","2","300","300","[""hsl(0, 50%, 50%)"",""hsl(225, 50%, 50%)""]","[""hsl(225, 50%, 50%)"",""hsl(0, 50%, 50%)""]","0.5","0.52","0","circle","black","3","2","2","16.6625","[5,18,16,17,17,17,17,17,17,17,17,17,17,17,17,17,17,17,17,17,17,17,17,17,17,17,16,17,17,17,17,17,16,17,17,17,15,18,16,17,17,17,17,17,17,17,16,16,17,16,17,16,17,17,17,17,17,16,17,17,16,16,17,17,16,17,17,16,17,16,16,17,17,17,17,17,17,17,17,17]","80","960","482","false","20","20","black","1","false","1","1","1920","964","k","staircase_color","","","","",""
"","","","","","html-keyboard-response","223","1833682","0.0-5.0-1.0-1.0-0.0-5.0-0.0-0.0-2.10","null","","null","<p style='font-size: 60px; color: green'>正确!</p>","","","","","","","","","","","","","","","","","","","","","","","","","","","","","","","","","","","","","","","","","","","","","","","",""
"","","","","","html-keyboard-response","224","1834620","0.0-5.0-1.0-1.0-0.0-5.0-0.0-0.0-0.11","null","fixation","null","<p style='font-size: 48px; color: white'>+</p >","","","","","","","","","","","","","","","","","","","","","","","","","","","","","","","","","","","","","","","","","","","","","","","",""
"","","","","","rdk","225","1836054","0.0-5.0-1.0-1.0-0.0-5.0-0.0-0.0-1.11","1015","color_test","k","","false","[""d"",""k""]","d","3000","true","1","100","0","0","0","3","1","-1","2","300","300","[""hsl(0, 50%, 50%)"",""hsl(225, 50%, 50%)""]","[""hsl(0, 50%, 50%)"",""hsl(225, 50%, 50%)""]","0.5","0.52","0","circle","black","3","2","2","16.688524590163933","[6,18,15,17,17,17,17,17,17,16,17,17,16,17,17,17,17,16,17,18,16,17,17,17,17,17,17,17,17,17,17,17,17,17,17,17,17,17,17,17,16,17,17,17,17,17,17,16,17,17,17,16,17,17,17,17,17,17,16,17,17]","61","960","482","false","20","20","black","1","false","1","1","1920","964","d","staircase_color","","","","",""
"","","","","","html-keyboard-response","226","1836980","0.0-5.0-1.0-1.0-0.0-5.0-0.0-0.0-2.11","null","","null","<p style='font-size: 60px; color: red'>错误!</p>","","","","","","","","","","","","","","","","","","","","","","","","","","","","","","","","","","","","","","","","","","","","","","","",""
"","","","","","html-keyboard-response","227","1839399","0.0-5.0-1.0-1.0-0.0-5.0-0.0-1.0","null","","null","<p style='font-size: 35px; color: white'>您的正确率为： 50% 。平均反应时为：1062毫秒。</p>","","","","","","","","","","","","","","","","","","","","","","","","","","","","","","","","","","","","","","","","","","","","","","","",""
"","","","","","html-keyboard-response","228","1840330","0.0-5.0-1.0-1.0-0.0-6.0-0.0-0.0-0.0","null","fixation","null","<p style='font-size: 48px; color: white'>+</p >","","","","","","","","","","","","","","","","","","","","","","","","","","","","","","","","","","","","","","","","","","","","","","","",""
"","","","","","rdk","229","1841990","0.0-5.0-1.0-1.0-0.0-6.0-0.0-0.0-1.0","1235","color_test","k","","true","[""d"",""k""]","k","3000","true","1","100","0","0","0","3","1","-1","2","300","300","[""hsl(0, 50%, 50%)"",""hsl(225, 50%, 50%)""]","[""hsl(225, 50%, 50%)"",""hsl(0, 50%, 50%)""]","0.5","0.56","0","circle","black","3","2","2","16.783783783783782","[6,16,17,17,17,17,17,18,16,17,17,17,17,17,17,17,17,17,17,17,17,17,17,17,17,17,17,17,17,17,17,17,17,17,17,17,17,17,17,16,17,16,17,17,17,17,17,17,16,17,17,17,17,17,17,16,17,17,17,17,17,17,17,17,17,17,17,17,17,17,17,17,17,17]","74","960","482","false","20","20","black","1","false","1","1","1920","964","k","staircase_color","","","","",""
"","","","","","html-keyboard-response","230","1842915","0.0-5.0-1.0-1.0-0.0-6.0-0.0-0.0-2.0","null","","null","<p style='font-size: 60px; color: green'>正确!</p>","","","","","","","","","","","","","","","","","","","","","","","","","","","","","","","","","","","","","","","","","","","","","","","",""
"","","","","","html-keyboard-response","231","1843848","0.0-5.0-1.0-1.0-0.0-6.0-0.0-0.0-0.1","null","fixation","null","<p style='font-size: 48px; color: white'>+</p >","","","","","","","","","","","","","","","","","","","","","","","","","","","","","","","","","","","","","","","","","","","","","","","",""
"","","","","","rdk","232","1845054","0.0-5.0-1.0-1.0-0.0-6.0-0.0-0.0-1.1","781","color_test","d","","true","[""d"",""k""]","d","3000","true","1","100","0","0","0","3","1","-1","2","300","300","[""hsl(0, 50%, 50%)"",""hsl(225, 50%, 50%)""]","[""hsl(0, 50%, 50%)"",""hsl(225, 50%, 50%)""]","0.5","0.56","0","circle","black","3","2","2","16.595744680851062","[5,17,17,17,17,17,17,17,17,16,17,17,17,17,17,17,16,17,17,16,17,17,17,17,17,17,17,17,17,17,16,17,17,16,17,17,17,17,17,17,17,17,17,15,17,17,17]","47","960","482","false","20","20","black","1","false","1","1","1920","964","d","staircase_color","","","","",""
"","","","","","html-keyboard-response","233","1845980","0.0-5.0-1.0-1.0-0.0-6.0-0.0-0.0-2.1","null","","null","<p style='font-size: 60px; color: green'>正确!</p>","","","","","","","","","","","","","","","","","","","","","","","","","","","","","","","","","","","","","","","","","","","","","","","",""
"","","","","","html-keyboard-response","234","1846915","0.0-5.0-1.0-1.0-0.0-6.0-0.0-0.0-0.2","null","fixation","null","<p style='font-size: 48px; color: white'>+</p >","","","","","","","","","","","","","","","","","","","","","","","","","","","","","","","","","","","","","","","","","","","","","","","",""
"","","","","","rdk","235","1848248","0.0-5.0-1.0-1.0-0.0-6.0-0.0-0.0-1.2","909","color_test","d","","true","[""d"",""k""]","d","3000","true","1","100","0","0","0","3","1","-1","2","300","300","[""hsl(0, 50%, 50%)"",""hsl(225, 50%, 50%)""]","[""hsl(0, 50%, 50%)"",""hsl(225, 50%, 50%)""]","0.5","0.56","0","circle","black","3","2","2","16.654545454545456","[5,16,17,17,17,17,16,18,17,16,17,17,17,17,17,17,17,17,16,17,16,17,16,17,17,17,17,17,17,17,17,17,17,16,17,17,17,16,17,17,17,17,17,17,17,17,17,17,17,17,17,17,17,17,17]","55","960","482","false","20","20","black","1","false","1","1","1920","964","d","staircase_color","","","","",""
