"success","timeout","failed_images","failed_audio","failed_video","trial_type","trial_index","time_elapsed","internal_node_id","rt","part","response","stimulus","correct","choices","correct_choice","trial_duration","response_ends_trial","number_of_apertures","number_of_dots","coherent_direction","coherence","opposite_coherence","dot_radius","dot_side_length","dot_life","move_distance","aperture_width","aperture_height","dot_color","dot_color_final","color_change_delay","target_color_proportion","motion_change_delay","dot_shape","background_color","RDK_type","aperture_type","reinsert_type","frame_rate","frame_rate_array","number_of_frames","aperture_center_x","aperture_center_y","fixation_cross","fixation_cross_width","fixation_cross_height","fixation_cross_color","fixation_cross_thickness","border","border_thickness","border_color","canvas_width","canvas_height","correct_response","data_label","task","difficulty","isMatch","association","label"
"true","false","[]","[]","[]","preload","0","5","0.0-0.0","","","","","","","","","","","","","","","","","","","","","","","","","","","","","","","","","","","","","","","","","","","","","","","","","","","",""
"true","","","","","fullscreen","1","918215","0.0-1.0","916712","fullScreen","","","","","","","","","","","","","","","","","","","","","","","","","","","","","","","","","","","","","","","","","","","","","","","","","",""
"","","","","","survey","2","930464","0.0-2.0","11711","survey","{""sex"":""女"",""age"":19,""hands"":""右"",""color_blindness"":""都不是""}","","","","","","","","","","","","","","","","","","","","","","","","","","","","","","","","","","","","","","","","","","","","","","","","",""
"","","","","","survey-text","3","939084","0.0-3.0","8134","color_test","{""Q0"":""be""}","","","","","","","","","","","","","","","","","","","","","","","","","","","","","","","","","","","","","","","","","","","","","","","","",""
"","","","","","html-keyboard-response","4","943455","0.0-4.0","3882","instruction_beginning"," ","
      <div style=""text-align: left; color: white"">
        <h3 style=""text-align: center; font-size: 30px; margin: 0;"">欢迎参与本实验</h3>
          <p>为充分保障您的权利，请确保您已经知晓并同意《参与实验同意书》以及《数据公开知情同意书》，</p>
          <p>如果您未见过上述内容，请咨询实验员 ，</p>
          <p>如果您选择继续实验，则表示您已经清楚两份知情同意书的内容并同意 。</p>
          <p>在整个实验中，您需要完成两项任务，具体的任务要求会在后面说明 ，</p>
          <p>请按空格键进入实验</p >
      </div>","","","","","","","","","","","","","","","","","","","","","","","","","","","","","","","","","","","","","","","","","","","","","","","",""
"","","","","","html-keyboard-response","5","955517","0.0-5.0-0.0","11579","instruction_getThreshold"," ","
        <div style=""text-align: left; color: white; padding: 10px""> 
          <h3 style=""text-align: center; font-size: 30px; margin: 10px"">欢迎进入实验！</h3>
          <p>在正式开始前，我们将通过一个快速测试为您打造专属的难度水平。<p>
          <p>接下来，屏幕上会呈现一些运动的圆点，其中一定比例的点为 <span style=""color: hsl(0, 50%, 50%)"">红色</span> ，其余为 <span style=""color: hsl(225, 50%, 50%)"">蓝色</span>，</p>
          <p>您需要在3秒内判断 <span style=""font-weight: bold"">散点图的整体颜色（即大多数点的颜色）是红色还是蓝色 </span>：</p >
          <ul>
            <li>整体为 <span style=""color: hsl(0, 50%, 50%)"">红色</span>，请按键盘 <span style=""color: hsl(0, 50%, 50%)"">""D"" 键</span></li>
            <li>整体为 <span style=""color: hsl(225, 50%, 50%)"">蓝色</span>，请按键盘 <span style=""color: hsl(225, 50%, 50%)"">""k"" 键</span> </li>
          </ul>
          <p>如有疑问请向主试咨询，没有则按下空格键开始</p>
        </div>","","","","","","","","","","","","","","","","","","","","","","","","","","","","","","","","","","","","","","","","","","","","","","","",""
"","","","","","html-keyboard-response","6","956517","0.0-5.0-1.0-1.0-0.0-0.0-0.0-0.0-0.0","null","fixation","null","<p style='font-size: 48px; color: white'>+</p >","","","","","","","","","","","","","","","","","","","","","","","","","","","","","","","","","","","","","","","","","","","","","","","",""
"","","","","","rdk","7","960016","0.0-5.0-1.0-1.0-0.0-0.0-0.0-0.0-1.0","-1","color_test","","","false","[""d"",""k""]","d","3000","true","1","100","0","0","0","3","1","-1","2","300","300","[""hsl(0, 50%, 50%)"",""hsl(225, 50%, 50%)""]","[""hsl(0, 50%, 50%)"",""hsl(225, 50%, 50%)""]","0.5","0.58","0","circle","black","3","2","2","16.805555555555557","[5,16,17,17,17,17,16,17,16,17,17,16,17,17,17,17,17,17,17,17,17,17,17,17,17,16,17,17,17,17,17,17,17,17,17,17,17,17,17,16,17,17,17,17,17,17,17,17,16,17,17,17,16,17,17,17,17,17,17,16,17,17,17,17,17,17,16,17,17,17,17,17,17,17,17,17,17,17,17,17,17,17,17,17,17,17,17,17,17,17,17,17,17,17,17,15,17,17,17,17,17,17,17,17,17,16,17,17,17,17,17,17,17,17,17,17,16,17,17,17,17,17,17,16,17,17,17,17,17,17,17,17,17,17,17,16,17,17,17,17,17,17,17,17,17,17,17,16,17,16,17,17,17,17,17,16,17,17,17,17,17,16,17,17,17,17,17,17,17,16,17,17,17,16,17,17,17,16,17,17]","180","960","482","false","20","20","black","1","false","1","1","1920","964","d","staircase_color","","","","",""
"","","","","","html-keyboard-response","8","961017","0.0-5.0-1.0-1.0-0.0-0.0-0.0-0.0-2.0","null","","null","<p style='font-size: 60px; color: yellow'>太慢!</p>","","","","","","","","","","","","","","","","","","","","","","","","","","","","","","","","","","","","","","","","","","","","","","","",""
"","","","","","html-keyboard-response","9","962017","0.0-5.0-1.0-1.0-0.0-0.0-0.0-0.0-0.1","null","fixation","null","<p style='font-size: 48px; color: white'>+</p >","","","","","","","","","","","","","","","","","","","","","","","","","","","","","","","","","","","","","","","","","","","","","","","",""
"","","","","","rdk","10","964094","0.0-5.0-1.0-1.0-0.0-0.0-0.0-0.0-1.1","1589","color_test","d","","true","[""d"",""k""]","d","3000","true","1","100","0","0","0","3","1","-1","2","300","300","[""hsl(0, 50%, 50%)"",""hsl(225, 50%, 50%)""]","[""hsl(0, 50%, 50%)"",""hsl(225, 50%, 50%)""]","0.5","0.58","0","circle","black","3","2","2","16.88421052631579","[10,17,17,17,17,17,17,17,17,17,17,17,17,17,17,17,17,17,17,17,17,17,17,17,17,17,16,17,17,17,17,17,17,17,17,17,17,17,17,17,17,16,17,17,17,17,17,17,17,17,17,17,17,17,17,16,17,17,17,17,17,17,17,17,17,17,17,17,17,17,17,17,17,16,17,17,17,17,17,17,17,17,17,17,17,17,17,17,17,17,17,17,17,17,17]","95","960","482","false","20","20","black","1","false","1","1","1920","964","d","staircase_color","","","","",""
"","","","","","html-keyboard-response","11","965100","0.0-5.0-1.0-1.0-0.0-0.0-0.0-0.0-2.1","null","","null","<p style='font-size: 60px; color: green'>正确!</p>","","","","","","","","","","","","","","","","","","","","","","","","","","","","","","","","","","","","","","","","","","","","","","","",""
"","","","","","html-keyboard-response","12","966100","0.0-5.0-1.0-1.0-0.0-0.0-0.0-0.0-0.2","null","fixation","null","<p style='font-size: 48px; color: white'>+</p >","","","","","","","","","","","","","","","","","","","","","","","","","","","","","","","","","","","","","","","","","","","","","","","",""
"","","","","","rdk","13","967573","0.0-5.0-1.0-1.0-0.0-0.0-0.0-0.0-1.2","985","color_test","k","","true","[""d"",""k""]","k","3000","true","1","100","0","0","0","3","1","-1","2","300","300","[""hsl(0, 50%, 50%)"",""hsl(225, 50%, 50%)""]","[""hsl(225, 50%, 50%)"",""hsl(0, 50%, 50%)""]","0.5","0.58","0","circle","black","3","2","2","16.71186440677966","[9,16,17,17,16,17,17,16,17,17,17,17,16,17,17,17,17,17,16,17,17,17,17,17,17,17,17,17,16,17,17,17,17,16,17,17,17,17,17,17,17,17,17,17,17,17,17,16,17,17,16,17,17,17,17,17,17,17,17]","59","960","482","false","20","20","black","1","false","1","1","1920","964","k","staircase_color","","","","",""
"","","","","","html-keyboard-response","14","968567","0.0-5.0-1.0-1.0-0.0-0.0-0.0-0.0-2.2","null","","null","<p style='font-size: 60px; color: green'>正确!</p>","","","","","","","","","","","","","","","","","","","","","","","","","","","","","","","","","","","","","","","","","","","","","","","",""
"","","","","","html-keyboard-response","15","969567","0.0-5.0-1.0-1.0-0.0-0.0-0.0-0.0-0.3","null","fixation","null","<p style='font-size: 48px; color: white'>+</p >","","","","","","","","","","","","","","","","","","","","","","","","","","","","","","","","","","","","","","","","","","","","","","","",""
"","","","","","rdk","16","970844","0.0-5.0-1.0-1.0-0.0-0.0-0.0-0.0-1.3","791","color_test","k","","true","[""d"",""k""]","k","3000","true","1","100","0","0","0","3","1","-1","2","300","300","[""hsl(0, 50%, 50%)"",""hsl(225, 50%, 50%)""]","[""hsl(225, 50%, 50%)"",""hsl(0, 50%, 50%)""]","0.5","0.58","0","circle","black","3","2","2","16.78723404255319","[10,17,17,17,17,16,17,17,17,17,17,17,17,17,17,16,17,17,17,17,17,17,17,17,17,17,17,17,17,17,17,17,17,17,17,17,17,17,17,17,17,17,17,17,17,17,16]","47","960","482","false","20","20","black","1","false","1","1","1920","964","k","staircase_color","","","","",""
"","","","","","html-keyboard-response","17","971851","0.0-5.0-1.0-1.0-0.0-0.0-0.0-0.0-2.3","null","","null","<p style='font-size: 60px; color: green'>正确!</p>","","","","","","","","","","","","","","","","","","","","","","","","","","","","","","","","","","","","","","","","","","","","","","","",""
"","","","","","html-keyboard-response","18","972851","0.0-5.0-1.0-1.0-0.0-0.0-0.0-0.0-0.4","null","fixation","null","<p style='font-size: 48px; color: white'>+</p >","","","","","","","","","","","","","","","","","","","","","","","","","","","","","","","","","","","","","","","","","","","","","","","",""
"","","","","","rdk","19","974125","0.0-5.0-1.0-1.0-0.0-0.0-0.0-0.0-1.4","788","color_test","k","","true","[""d"",""k""]","k","3000","true","1","100","0","0","0","3","1","-1","2","300","300","[""hsl(0, 50%, 50%)"",""hsl(225, 50%, 50%)""]","[""hsl(225, 50%, 50%)"",""hsl(0, 50%, 50%)""]","0.5","0.58","0","circle","black","3","2","2","16.76595744680851","[9,17,17,17,17,17,17,17,17,17,17,17,17,17,16,17,17,17,17,17,17,17,17,17,16,17,17,17,17,17,17,17,17,16,17,17,17,17,17,17,17,17,17,17,17,17,17]","47","960","482","false","20","20","black","1","false","1","1","1920","964","k","staircase_color","","","","",""
"","","","","","html-keyboard-response","20","975134","0.0-5.0-1.0-1.0-0.0-0.0-0.0-0.0-2.4","null","","null","<p style='font-size: 60px; color: green'>正确!</p>","","","","","","","","","","","","","","","","","","","","","","","","","","","","","","","","","","","","","","","","","","","","","","","",""
"","","","","","html-keyboard-response","21","976134","0.0-5.0-1.0-1.0-0.0-0.0-0.0-0.0-0.5","null","fixation","null","<p style='font-size: 48px; color: white'>+</p >","","","","","","","","","","","","","","","","","","","","","","","","","","","","","","","","","","","","","","","","","","","","","","","",""
"","","","","","rdk","22","977821","0.0-5.0-1.0-1.0-0.0-0.0-0.0-0.0-1.5","1201","color_test","d","","true","[""d"",""k""]","d","3000","true","1","100","0","0","0","3","1","-1","2","300","300","[""hsl(0, 50%, 50%)"",""hsl(225, 50%, 50%)""]","[""hsl(0, 50%, 50%)"",""hsl(225, 50%, 50%)""]","0.5","0.58","0","circle","black","3","2","2","16.875","[11,17,17,17,17,17,17,17,17,17,17,17,17,17,17,17,17,17,17,17,17,17,17,17,17,17,17,17,17,17,17,16,17,17,17,17,17,17,16,17,17,17,17,17,17,17,17,17,17,17,17,17,17,16,17,17,17,17,17,17,17,17,17,17,17,17,17,17,17,17,17,17]","72","960","482","false","20","20","black","1","false","1","1","1920","964","d","staircase_color","","","","",""
"","","","","","html-keyboard-response","23","978817","0.0-5.0-1.0-1.0-0.0-0.0-0.0-0.0-2.5","null","","null","<p style='font-size: 60px; color: green'>正确!</p>","","","","","","","","","","","","","","","","","","","","","","","","","","","","","","","","","","","","","","","","","","","","","","","",""
"","","","","","html-keyboard-response","24","979816","0.0-5.0-1.0-1.0-0.0-0.0-0.0-0.0-0.6","null","fixation","null","<p style='font-size: 48px; color: white'>+</p >","","","","","","","","","","","","","","","","","","","","","","","","","","","","","","","","","","","","","","","","","","","","","","","",""
"","","","","","rdk","25","980964","0.0-5.0-1.0-1.0-0.0-0.0-0.0-0.0-1.6","660","color_test","k","","true","[""d"",""k""]","k","3000","true","1","100","0","0","0","3","1","-1","2","300","300","[""hsl(0, 50%, 50%)"",""hsl(225, 50%, 50%)""]","[""hsl(225, 50%, 50%)"",""hsl(0, 50%, 50%)""]","0.5","0.58","0","circle","black","3","2","2","16.76923076923077","[9,17,17,17,17,17,17,17,17,17,17,17,17,17,17,17,17,17,17,17,17,17,17,17,17,17,17,17,17,17,17,17,17,17,17,17,17,16,17]","39","960","482","false","20","20","black","1","false","1","1","1920","964","k","staircase_color","","","","",""
"","","","","","html-keyboard-response","26","981967","0.0-5.0-1.0-1.0-0.0-0.0-0.0-0.0-2.6","null","","null","<p style='font-size: 60px; color: green'>正确!</p>","","","","","","","","","","","","","","","","","","","","","","","","","","","","","","","","","","","","","","","","","","","","","","","",""
"","","","","","html-keyboard-response","27","982967","0.0-5.0-1.0-1.0-0.0-0.0-0.0-0.0-0.7","null","fixation","null","<p style='font-size: 48px; color: white'>+</p >","","","","","","","","","","","","","","","","","","","","","","","","","","","","","","","","","","","","","","","","","","","","","","","",""
"","","","","","rdk","28","985013","0.0-5.0-1.0-1.0-0.0-0.0-0.0-0.0-1.7","1552","color_test","k","","false","[""d"",""k""]","d","3000","true","1","100","0","0","0","3","1","-1","2","300","300","[""hsl(0, 50%, 50%)"",""hsl(225, 50%, 50%)""]","[""hsl(0, 50%, 50%)"",""hsl(225, 50%, 50%)""]","0.5","0.58","0","circle","black","3","2","2","16.795698924731184","[3,16,17,18,16,17,18,16,16,17,17,17,17,17,17,17,17,17,17,17,17,17,17,17,17,17,17,17,17,17,17,16,17,17,17,17,17,17,17,16,17,17,17,16,17,17,17,17,17,17,17,17,17,17,17,17,17,17,17,17,17,17,17,17,17,17,17,17,17,17,17,17,17,17,17,17,17,17,17,17,17,17,17,17,17,17,17,17,17,17,17,17,17]","93","960","482","false","20","20","black","1","false","1","1","1920","964","d","staircase_color","","","","",""
"","","","","","html-keyboard-response","29","986017","0.0-5.0-1.0-1.0-0.0-0.0-0.0-0.0-2.7","null","","null","<p style='font-size: 60px; color: red'>错误!</p>","","","","","","","","","","","","","","","","","","","","","","","","","","","","","","","","","","","","","","","","","","","","","","","",""
"","","","","","html-keyboard-response","30","987017","0.0-5.0-1.0-1.0-0.0-0.0-0.0-0.0-0.8","null","fixation","null","<p style='font-size: 48px; color: white'>+</p >","","","","","","","","","","","","","","","","","","","","","","","","","","","","","","","","","","","","","","","","","","","","","","","",""
"","","","","","rdk","31","988341","0.0-5.0-1.0-1.0-0.0-0.0-0.0-0.0-1.8","837","color_test","k","","true","[""d"",""k""]","k","3000","true","1","100","0","0","0","3","1","-1","2","300","300","[""hsl(0, 50%, 50%)"",""hsl(225, 50%, 50%)""]","[""hsl(225, 50%, 50%)"",""hsl(0, 50%, 50%)""]","0.5","0.58","0","circle","black","3","2","2","16.64","[7,17,17,17,17,17,17,17,16,17,17,17,17,17,16,17,17,17,17,16,17,17,17,17,17,17,17,17,17,17,17,17,17,16,17,17,16,17,17,16,17,16,17,17,17,17,17,17,16,17]","50","960","482","false","20","20","black","1","false","1","1","1920","964","k","staircase_color","","","","",""
"","","","","","html-keyboard-response","32","989334","0.0-5.0-1.0-1.0-0.0-0.0-0.0-0.0-2.8","null","","null","<p style='font-size: 60px; color: green'>正确!</p>","","","","","","","","","","","","","","","","","","","","","","","","","","","","","","","","","","","","","","","","","","","","","","","",""
"","","","","","html-keyboard-response","33","990334","0.0-5.0-1.0-1.0-0.0-0.0-0.0-0.0-0.9","null","fixation","null","<p style='font-size: 48px; color: white'>+</p >","","","","","","","","","","","","","","","","","","","","","","","","","","","","","","","","","","","","","","","","","","","","","","","",""
"","","","","","rdk","34","991725","0.0-5.0-1.0-1.0-0.0-0.0-0.0-0.0-1.9","905","color_test","k","","true","[""d"",""k""]","k","3000","true","1","100","0","0","0","3","1","-1","2","300","300","[""hsl(0, 50%, 50%)"",""hsl(225, 50%, 50%)""]","[""hsl(225, 50%, 50%)"",""hsl(0, 50%, 50%)""]","0.5","0.58","0","circle","black","3","2","2","16.833333333333332","[10,17,17,17,17,17,17,17,17,17,17,17,17,17,17,17,17,17,17,17,17,17,17,17,17,17,17,17,16,17,17,17,17,17,17,17,16,17,17,17,17,17,17,17,17,17,17,17,17,17,17,17,17,17]","54","960","482","false","20","20","black","1","false","1","1","1920","964","k","staircase_color","","","","",""
"","","","","","html-keyboard-response","35","992733","0.0-5.0-1.0-1.0-0.0-0.0-0.0-0.0-2.9","null","","null","<p style='font-size: 60px; color: green'>正确!</p>","","","","","","","","","","","","","","","","","","","","","","","","","","","","","","","","","","","","","","","","","","","","","","","",""
"","","","","","html-keyboard-response","36","993734","0.0-5.0-1.0-1.0-0.0-0.0-0.0-0.0-0.10","null","fixation","null","<p style='font-size: 48px; color: white'>+</p >","","","","","","","","","","","","","","","","","","","","","","","","","","","","","","","","","","","","","","","","","","","","","","","",""
"","","","","","rdk","37","995045","0.0-5.0-1.0-1.0-0.0-0.0-0.0-0.0-1.10","824","color_test","d","","true","[""d"",""k""]","d","3000","true","1","100","0","0","0","3","1","-1","2","300","300","[""hsl(0, 50%, 50%)"",""hsl(225, 50%, 50%)""]","[""hsl(0, 50%, 50%)"",""hsl(225, 50%, 50%)""]","0.5","0.58","0","circle","black","3","2","2","16.79591836734694","[10,17,17,17,17,17,17,17,17,17,17,17,17,17,17,17,17,17,17,17,17,17,17,16,17,17,16,17,17,17,17,17,17,17,17,17,17,16,17,17,17,17,17,17,17,17,17,17,17]","49","960","482","false","20","20","black","1","false","1","1","1920","964","d","staircase_color","","","","",""
"","","","","","html-keyboard-response","38","996051","0.0-5.0-1.0-1.0-0.0-0.0-0.0-0.0-2.10","null","","null","<p style='font-size: 60px; color: green'>正确!</p>","","","","","","","","","","","","","","","","","","","","","","","","","","","","","","","","","","","","","","","","","","","","","","","",""
"","","","","","html-keyboard-response","39","997051","0.0-5.0-1.0-1.0-0.0-0.0-0.0-0.0-0.11","null","fixation","null","<p style='font-size: 48px; color: white'>+</p >","","","","","","","","","","","","","","","","","","","","","","","","","","","","","","","","","","","","","","","","","","","","","","","",""
"","","","","","rdk","40","998741","0.0-5.0-1.0-1.0-0.0-0.0-0.0-0.0-1.11","1204","color_test","d","","true","[""d"",""k""]","d","3000","true","1","100","0","0","0","3","1","-1","2","300","300","[""hsl(0, 50%, 50%)"",""hsl(225, 50%, 50%)""]","[""hsl(0, 50%, 50%)"",""hsl(225, 50%, 50%)""]","0.5","0.58","0","circle","black","3","2","2","16.86111111111111","[10,17,17,17,17,17,17,17,16,17,17,17,17,17,17,17,17,17,17,17,17,17,17,17,17,17,17,17,17,17,17,17,17,17,17,17,17,17,17,17,17,17,17,16,17,17,16,17,17,17,17,17,17,17,17,17,17,17,17,17,17,17,17,17,17,17,17,17,17,17,17,17]","72","960","482","false","20","20","black","1","false","1","1","1920","964","d","staircase_color","","","","",""
"","","","","","html-keyboard-response","41","999733","0.0-5.0-1.0-1.0-0.0-0.0-0.0-0.0-2.11","null","","null","<p style='font-size: 60px; color: green'>正确!</p>","","","","","","","","","","","","","","","","","","","","","","","","","","","","","","","","","","","","","","","","","","","","","","","",""
"","","","","","html-keyboard-response","42","1002234","0.0-5.0-1.0-1.0-0.0-0.0-0.0-1.0","null","","null","<p style='font-size: 35px; color: white'>您的正确率为： 83% 。平均反应时为：945毫秒。</p>","","","","","","","","","","","","","","","","","","","","","","","","","","","","","","","","","","","","","","","","","","","","","","","",""
"","","","","","html-keyboard-response","43","1003233","0.0-5.0-1.0-1.0-0.0-1.0-0.0-0.0-0.0","null","fixation","null","<p style='font-size: 48px; color: white'>+</p >","","","","","","","","","","","","","","","","","","","","","","","","","","","","","","","","","","","","","","","","","","","","","","","",""
"","","","","","rdk","44","1004501","0.0-5.0-1.0-1.0-0.0-1.0-0.0-0.0-1.0","781","color_test","k","","true","[""d"",""k""]","k","3000","true","1","100","0","0","0","3","1","-1","2","300","300","[""hsl(0, 50%, 50%)"",""hsl(225, 50%, 50%)""]","[""hsl(225, 50%, 50%)"",""hsl(0, 50%, 50%)""]","0.5","0.56","0","circle","black","3","2","2","16.659574468085108","[9,18,16,17,17,16,17,17,17,17,17,17,16,17,17,17,17,17,17,16,17,17,17,17,17,17,16,17,17,17,17,17,17,17,17,17,17,17,16,17,16,17,16,17,17,17,16]","47","960","482","false","20","20","black","1","false","1","1","1920","964","k","staircase_color","","","","",""
"","","","","","html-keyboard-response","45","1005500","0.0-5.0-1.0-1.0-0.0-1.0-0.0-0.0-2.0","null","","null","<p style='font-size: 60px; color: green'>正确!</p>","","","","","","","","","","","","","","","","","","","","","","","","","","","","","","","","","","","","","","","","","","","","","","","",""
"","","","","","html-keyboard-response","46","1006501","0.0-5.0-1.0-1.0-0.0-1.0-0.0-0.0-0.1","null","fixation","null","<p style='font-size: 48px; color: white'>+</p >","","","","","","","","","","","","","","","","","","","","","","","","","","","","","","","","","","","","","","","","","","","","","","","",""
"","","","","","rdk","47","1007709","0.0-5.0-1.0-1.0-0.0-1.0-0.0-0.0-1.1","724","color_test","k","","true","[""d"",""k""]","k","3000","true","1","100","0","0","0","3","1","-1","2","300","300","[""hsl(0, 50%, 50%)"",""hsl(225, 50%, 50%)""]","[""hsl(225, 50%, 50%)"",""hsl(0, 50%, 50%)""]","0.5","0.56","0","circle","black","3","2","2","16.74418604651163","[13,16,17,17,17,17,17,16,17,16,17,16,17,17,17,17,16,17,17,17,17,17,17,17,17,17,16,17,16,17,17,17,17,17,17,17,17,17,17,17,17,17,17]","43","960","482","false","20","20","black","1","false","1","1","1920","964","k","staircase_color","","","","",""
"","","","","","html-keyboard-response","48","1008716","0.0-5.0-1.0-1.0-0.0-1.0-0.0-0.0-2.1","null","","null","<p style='font-size: 60px; color: green'>正确!</p>","","","","","","","","","","","","","","","","","","","","","","","","","","","","","","","","","","","","","","","","","","","","","","","",""
"","","","","","html-keyboard-response","49","1009717","0.0-5.0-1.0-1.0-0.0-1.0-0.0-0.0-0.2","null","fixation","null","<p style='font-size: 48px; color: white'>+</p >","","","","","","","","","","","","","","","","","","","","","","","","","","","","","","","","","","","","","","","","","","","","","","","",""
"","","","","","rdk","50","1011101","0.0-5.0-1.0-1.0-0.0-1.0-0.0-0.0-1.2","896","color_test","d","","true","[""d"",""k""]","d","3000","true","1","100","0","0","0","3","1","-1","2","300","300","[""hsl(0, 50%, 50%)"",""hsl(225, 50%, 50%)""]","[""hsl(0, 50%, 50%)"",""hsl(225, 50%, 50%)""]","0.5","0.56","0","circle","black","3","2","2","16.75925925925926","[9,16,17,17,17,16,16,17,17,17,17,17,17,17,16,17,17,17,16,17,17,17,17,17,17,17,17,17,17,17,17,17,17,17,17,17,17,17,17,17,17,17,17,17,17,17,17,17,17,17,17,17,17,17]","54","960","482","false","20","20","black","1","false","1","1","1920","964","d","staircase_color","","","","",""
"","","","","","html-keyboard-response","51","1012100","0.0-5.0-1.0-1.0-0.0-1.0-0.0-0.0-2.2","null","","null","<p style='font-size: 60px; color: green'>正确!</p>","","","","","","","","","","","","","","","","","","","","","","","","","","","","","","","","","","","","","","","","","","","","","","","",""
"","","","","","html-keyboard-response","52","1013101","0.0-5.0-1.0-1.0-0.0-1.0-0.0-0.0-0.3","null","fixation","null","<p style='font-size: 48px; color: white'>+</p >","","","","","","","","","","","","","","","","","","","","","","","","","","","","","","","","","","","","","","","","","","","","","","","",""
"","","","","","rdk","53","1014517","0.0-5.0-1.0-1.0-0.0-1.0-0.0-0.0-1.3","930","color_test","d","","true","[""d"",""k""]","d","3000","true","1","100","0","0","0","3","1","-1","2","300","300","[""hsl(0, 50%, 50%)"",""hsl(225, 50%, 50%)""]","[""hsl(0, 50%, 50%)"",""hsl(225, 50%, 50%)""]","0.5","0.56","0","circle","black","3","2","2","16.785714285714285","[9,17,16,17,17,17,17,17,17,17,17,17,17,17,17,17,17,16,17,17,17,17,17,17,17,17,17,17,17,17,17,17,17,17,17,17,16,17,17,17,17,17,17,17,17,17,17,17,16,17,17,17,17,17,17,17]","56","960","482","false","20","20","black","1","false","1","1","1920","964","d","staircase_color","","","","",""
"","","","","","html-keyboard-response","54","1015517","0.0-5.0-1.0-1.0-0.0-1.0-0.0-0.0-2.3","null","","null","<p style='font-size: 60px; color: green'>正确!</p>","","","","","","","","","","","","","","","","","","","","","","","","","","","","","","","","","","","","","","","","","","","","","","","",""
"","","","","","html-keyboard-response","55","1016502","0.0-5.0-1.0-1.0-0.0-1.0-0.0-0.0-0.4","null","fixation","null","<p style='font-size: 48px; color: white'>+</p >","","","","","","","","","","","","","","","","","","","","","","","","","","","","","","","","","","","","","","","","","","","","","","","",""
"","","","","","rdk","56","1017741","0.0-5.0-1.0-1.0-0.0-1.0-0.0-0.0-1.4","753","color_test","d","","true","[""d"",""k""]","d","3000","true","1","100","0","0","0","3","1","-1","2","300","300","[""hsl(0, 50%, 50%)"",""hsl(225, 50%, 50%)""]","[""hsl(0, 50%, 50%)"",""hsl(225, 50%, 50%)""]","0.5","0.56","0","circle","black","3","2","2","16.68888888888889","[8,17,17,17,18,16,17,17,17,16,17,17,17,17,17,17,17,17,17,16,17,17,17,16,17,17,17,17,17,16,17,17,17,17,17,17,17,17,17,17,17,17,17,16,17]","45","960","482","false","20","20","black","1","false","1","1","1920","964","d","staircase_color","","","","",""
"","","","","","html-keyboard-response","57","1018733","0.0-5.0-1.0-1.0-0.0-1.0-0.0-0.0-2.4","null","","null","<p style='font-size: 60px; color: green'>正确!</p>","","","","","","","","","","","","","","","","","","","","","","","","","","","","","","","","","","","","","","","","","","","","","","","",""
"","","","","","html-keyboard-response","58","1019734","0.0-5.0-1.0-1.0-0.0-1.0-0.0-0.0-0.5","null","fixation","null","<p style='font-size: 48px; color: white'>+</p >","","","","","","","","","","","","","","","","","","","","","","","","","","","","","","","","","","","","","","","","","","","","","","","",""
"","","","","","rdk","59","1021013","0.0-5.0-1.0-1.0-0.0-1.0-0.0-0.0-1.5","793","color_test","k","","true","[""d"",""k""]","k","3000","true","1","100","0","0","0","3","1","-1","2","300","300","[""hsl(0, 50%, 50%)"",""hsl(225, 50%, 50%)""]","[""hsl(225, 50%, 50%)"",""hsl(0, 50%, 50%)""]","0.5","0.56","0","circle","black","3","2","2","16.851063829787233","[11,16,17,17,17,17,17,17,17,17,17,17,17,17,17,17,17,17,17,17,17,17,17,17,17,17,17,17,17,17,17,17,17,17,17,17,17,17,17,17,17,17,17,17,17,17,17]","47","960","482","false","20","20","black","1","false","1","1","1920","964","k","staircase_color","","","","",""
"","","","","","html-keyboard-response","60","1022018","0.0-5.0-1.0-1.0-0.0-1.0-0.0-0.0-2.5","null","","null","<p style='font-size: 60px; color: green'>正确!</p>","","","","","","","","","","","","","","","","","","","","","","","","","","","","","","","","","","","","","","","","","","","","","","","",""
"","","","","","html-keyboard-response","61","1023017","0.0-5.0-1.0-1.0-0.0-1.0-0.0-0.0-0.6","null","fixation","null","<p style='font-size: 48px; color: white'>+</p >","","","","","","","","","","","","","","","","","","","","","","","","","","","","","","","","","","","","","","","","","","","","","","","",""
"","","","","","rdk","62","1024772","0.0-5.0-1.0-1.0-0.0-1.0-0.0-0.0-1.6","1269","color_test","d","","true","[""d"",""k""]","d","3000","true","1","100","0","0","0","3","1","-1","2","300","300","[""hsl(0, 50%, 50%)"",""hsl(225, 50%, 50%)""]","[""hsl(0, 50%, 50%)"",""hsl(225, 50%, 50%)""]","0.5","0.56","0","circle","black","3","2","2","16.82894736842105","[10,17,16,17,17,17,17,17,17,17,17,16,17,17,17,17,17,17,17,17,16,17,17,17,17,17,17,16,17,16,17,17,17,17,17,17,17,16,17,17,17,17,17,17,17,17,17,17,17,17,17,17,17,17,17,17,17,17,17,17,17,17,17,17,17,17,17,17,17,17,17,17,17,17,17,17]","76","960","482","false","20","20","black","1","false","1","1","1920","964","d","staircase_color","","","","",""
"","","","","","html-keyboard-response","63","1025767","0.0-5.0-1.0-1.0-0.0-1.0-0.0-0.0-2.6","null","","null","<p style='font-size: 60px; color: green'>正确!</p>","","","","","","","","","","","","","","","","","","","","","","","","","","","","","","","","","","","","","","","","","","","","","","","",""
"","","","","","html-keyboard-response","64","1026768","0.0-5.0-1.0-1.0-0.0-1.0-0.0-0.0-0.7","null","fixation","null","<p style='font-size: 48px; color: white'>+</p >","","","","","","","","","","","","","","","","","","","","","","","","","","","","","","","","","","","","","","","","","","","","","","","",""
"","","","","","rdk","65","1027909","0.0-5.0-1.0-1.0-0.0-1.0-0.0-0.0-1.7","655","color_test","k","","true","[""d"",""k""]","k","3000","true","1","100","0","0","0","3","1","-1","2","300","300","[""hsl(0, 50%, 50%)"",""hsl(225, 50%, 50%)""]","[""hsl(225, 50%, 50%)"",""hsl(0, 50%, 50%)""]","0.5","0.56","0","circle","black","3","2","2","16.666666666666668","[9,18,16,17,16,17,17,17,17,17,17,17,17,17,16,17,16,17,17,17,17,17,17,17,17,17,17,17,17,17,17,16,17,17,17,17,17,17,16]","39","960","482","false","20","20","black","1","false","1","1","1920","964","k","staircase_color","","","","",""
"","","","","","html-keyboard-response","66","1028917","0.0-5.0-1.0-1.0-0.0-1.0-0.0-0.0-2.7","null","","null","<p style='font-size: 60px; color: green'>正确!</p>","","","","","","","","","","","","","","","","","","","","","","","","","","","","","","","","","","","","","","","","","","","","","","","",""
"","","","","","html-keyboard-response","67","1029917","0.0-5.0-1.0-1.0-0.0-1.0-0.0-0.0-0.8","null","fixation","null","<p style='font-size: 48px; color: white'>+</p >","","","","","","","","","","","","","","","","","","","","","","","","","","","","","","","","","","","","","","","","","","","","","","","",""
"","","","","","rdk","68","1031733","0.0-5.0-1.0-1.0-0.0-1.0-0.0-0.0-1.8","1330","color_test","d","","true","[""d"",""k""]","d","3000","true","1","100","0","0","0","3","1","-1","2","300","300","[""hsl(0, 50%, 50%)"",""hsl(225, 50%, 50%)""]","[""hsl(0, 50%, 50%)"",""hsl(225, 50%, 50%)""]","0.5","0.56","0","circle","black","3","2","2","16.7375","[9,17,17,17,17,17,18,16,17,16,17,17,17,17,17,16,17,17,17,17,17,16,17,17,17,17,17,17,16,17,17,17,17,17,17,17,17,17,16,17,17,17,17,17,17,17,17,16,17,17,17,17,17,17,16,17,16,17,17,17,17,17,17,16,17,17,16,17,17,17,16,17,17,16,17,16,17,17,17,17]","80","960","482","false","20","20","black","1","false","1","1","1920","964","d","staircase_color","","","","",""
"","","","","","html-keyboard-response","69","1032734","0.0-5.0-1.0-1.0-0.0-1.0-0.0-0.0-2.8","null","","null","<p style='font-size: 60px; color: green'>正确!</p>","","","","","","","","","","","","","","","","","","","","","","","","","","","","","","","","","","","","","","","","","","","","","","","",""
"","","","","","html-keyboard-response","70","1033733","0.0-5.0-1.0-1.0-0.0-1.0-0.0-0.0-0.9","null","fixation","null","<p style='font-size: 48px; color: white'>+</p >","","","","","","","","","","","","","","","","","","","","","","","","","","","","","","","","","","","","","","","","","","","","","","","",""
"","","","","","rdk","71","1035367","0.0-5.0-1.0-1.0-0.0-1.0-0.0-0.0-1.9","1153","color_test","k","","false","[""d"",""k""]","d","3000","true","1","100","0","0","0","3","1","-1","2","300","300","[""hsl(0, 50%, 50%)"",""hsl(225, 50%, 50%)""]","[""hsl(0, 50%, 50%)"",""hsl(225, 50%, 50%)""]","0.5","0.56","0","circle","black","3","2","2","16.897058823529413","[16,17,17,17,17,17,16,17,17,17,16,16,17,17,17,17,17,17,17,17,17,17,17,16,18,16,17,16,17,17,17,17,17,17,17,17,17,17,17,17,17,17,17,17,17,17,17,16,17,17,17,17,17,17,17,17,17,17,17,17,17,17,17,17,17,17,17,17]","68","960","482","false","20","20","black","1","false","1","1","1920","964","d","staircase_color","","","","",""
"","","","","","html-keyboard-response","72","1036367","0.0-5.0-1.0-1.0-0.0-1.0-0.0-0.0-2.9","null","","null","<p style='font-size: 60px; color: red'>错误!</p>","","","","","","","","","","","","","","","","","","","","","","","","","","","","","","","","","","","","","","","","","","","","","","","",""
"","","","","","html-keyboard-response","73","1037355","0.0-5.0-1.0-1.0-0.0-1.0-0.0-0.0-0.10","null","fixation","null","<p style='font-size: 48px; color: white'>+</p >","","","","","","","","","","","","","","","","","","","","","","","","","","","","","","","","","","","","","","","","","","","","","","","",""
"","","","","","rdk","74","1038444","0.0-5.0-1.0-1.0-0.0-1.0-0.0-0.0-1.10","608","color_test","k","","true","[""d"",""k""]","k","3000","true","1","100","0","0","0","3","1","-1","2","300","300","[""hsl(0, 50%, 50%)"",""hsl(225, 50%, 50%)""]","[""hsl(225, 50%, 50%)"",""hsl(0, 50%, 50%)""]","0.5","0.56","0","circle","black","3","2","2","16.805555555555557","[11,17,17,17,17,17,17,17,17,17,17,17,17,17,17,17,17,17,17,17,17,17,17,17,17,17,17,17,17,17,17,17,17,17,17,16]","36","960","482","false","20","20","black","1","false","1","1","1920","964","k","staircase_color","","","","",""
"","","","","","html-keyboard-response","75","1039450","0.0-5.0-1.0-1.0-0.0-1.0-0.0-0.0-2.10","null","","null","<p style='font-size: 60px; color: green'>正确!</p>","","","","","","","","","","","","","","","","","","","","","","","","","","","","","","","","","","","","","","","","","","","","","","","",""
"","","","","","html-keyboard-response","76","1040451","0.0-5.0-1.0-1.0-0.0-1.0-0.0-0.0-0.11","null","fixation","null","<p style='font-size: 48px; color: white'>+</p >","","","","","","","","","","","","","","","","","","","","","","","","","","","","","","","","","","","","","","","","","","","","","","","",""
"","","","","","rdk","77","1042045","0.0-5.0-1.0-1.0-0.0-1.0-0.0-0.0-1.11","1108","color_test","k","","true","[""d"",""k""]","k","3000","true","1","100","0","0","0","3","1","-1","2","300","300","[""hsl(0, 50%, 50%)"",""hsl(225, 50%, 50%)""]","[""hsl(225, 50%, 50%)"",""hsl(0, 50%, 50%)""]","0.5","0.56","0","circle","black","3","2","2","16.848484848484848","[11,17,17,17,17,17,17,17,17,17,17,17,17,17,17,17,17,17,17,17,17,17,17,17,17,17,17,17,16,17,16,17,17,17,17,17,17,17,17,17,17,17,17,16,17,17,16,17,17,17,17,17,17,17,17,17,17,17,17,17,17,17,17,17,17,17]","66","960","482","false","20","20","black","1","false","1","1","1920","964","k","staircase_color","","","","",""
"","","","","","html-keyboard-response","78","1043050","0.0-5.0-1.0-1.0-0.0-1.0-0.0-0.0-2.11","null","","null","<p style='font-size: 60px; color: green'>正确!</p>","","","","","","","","","","","","","","","","","","","","","","","","","","","","","","","","","","","","","","","","","","","","","","","",""
"","","","","","html-keyboard-response","79","1045550","0.0-5.0-1.0-1.0-0.0-1.0-0.0-1.0","null","","null","<p style='font-size: 35px; color: white'>您的正确率为： 92% 。平均反应时为：917毫秒。</p>","","","","","","","","","","","","","","","","","","","","","","","","","","","","","","","","","","","","","","","","","","","","","","","",""
"","","","","","html-keyboard-response","80","1046551","0.0-5.0-1.0-1.0-0.0-2.0-0.0-0.0-0.0","null","fixation","null","<p style='font-size: 48px; color: white'>+</p >","","","","","","","","","","","","","","","","","","","","","","","","","","","","","","","","","","","","","","","","","","","","","","","",""
"","","","","","rdk","81","1047813","0.0-5.0-1.0-1.0-0.0-2.0-0.0-0.0-1.0","775","color_test","k","","false","[""d"",""k""]","d","3000","true","1","100","0","0","0","3","1","-1","2","300","300","[""hsl(0, 50%, 50%)"",""hsl(225, 50%, 50%)""]","[""hsl(0, 50%, 50%)"",""hsl(225, 50%, 50%)""]","0.5","0.54","0","circle","black","3","2","2","16.67391304347826","[8,18,16,17,17,17,17,17,17,16,17,16,17,17,17,17,17,17,17,17,17,16,16,17,17,16,17,17,17,17,17,17,17,17,17,17,16,17,17,17,17,17,17,17,17,17]","46","960","482","false","20","20","black","1","false","1","1","1920","964","d","staircase_color","","","","",""
"","","","","","html-keyboard-response","82","1048817","0.0-5.0-1.0-1.0-0.0-2.0-0.0-0.0-2.0","null","","null","<p style='font-size: 60px; color: red'>错误!</p>","","","","","","","","","","","","","","","","","","","","","","","","","","","","","","","","","","","","","","","","","","","","","","","",""
"","","","","","html-keyboard-response","83","1049817","0.0-5.0-1.0-1.0-0.0-2.0-0.0-0.0-0.1","null","fixation","null","<p style='font-size: 48px; color: white'>+</p >","","","","","","","","","","","","","","","","","","","","","","","","","","","","","","","","","","","","","","","","","","","","","","","",""
"","","","","","rdk","84","1051283","0.0-5.0-1.0-1.0-0.0-2.0-0.0-0.0-1.1","976","color_test","k","","true","[""d"",""k""]","k","3000","true","1","100","0","0","0","3","1","-1","2","300","300","[""hsl(0, 50%, 50%)"",""hsl(225, 50%, 50%)""]","[""hsl(225, 50%, 50%)"",""hsl(0, 50%, 50%)""]","0.5","0.54","0","circle","black","3","2","2","16.694915254237287","[6,18,17,16,16,17,17,16,17,17,17,17,17,17,17,17,17,17,17,17,17,16,17,17,17,17,17,17,17,17,17,17,17,17,17,17,17,17,15,17,17,17,17,17,17,17,17,17,17,17,16,17,17,17,17,17,16,17,17]","59","960","482","false","20","20","black","1","false","1","1","1920","964","k","staircase_color","","","","",""
"","","","","","html-keyboard-response","85","1052283","0.0-5.0-1.0-1.0-0.0-2.0-0.0-0.0-2.1","null","","null","<p style='font-size: 60px; color: green'>正确!</p>","","","","","","","","","","","","","","","","","","","","","","","","","","","","","","","","","","","","","","","","","","","","","","","",""
"","","","","","html-keyboard-response","86","1053283","0.0-5.0-1.0-1.0-0.0-2.0-0.0-0.0-0.2","null","fixation","null","<p style='font-size: 48px; color: white'>+</p >","","","","","","","","","","","","","","","","","","","","","","","","","","","","","","","","","","","","","","","","","","","","","","","",""
"","","","","","rdk","87","1054403","0.0-5.0-1.0-1.0-0.0-2.0-0.0-0.0-1.2","634","color_test","k","","false","[""d"",""k""]","d","3000","true","1","100","0","0","0","3","1","-1","2","300","300","[""hsl(0, 50%, 50%)"",""hsl(225, 50%, 50%)""]","[""hsl(0, 50%, 50%)"",""hsl(225, 50%, 50%)""]","0.5","0.54","0","circle","black","3","2","2","16.789473684210527","[11,17,17,17,17,17,17,17,17,17,17,17,17,17,17,17,17,17,17,17,17,17,17,17,17,17,17,17,17,17,17,17,17,17,17,17,15,17]","38","960","482","false","20","20","black","1","false","1","1","1920","964","d","staircase_color","","","","",""
"","","","","","html-keyboard-response","88","1055401","0.0-5.0-1.0-1.0-0.0-2.0-0.0-0.0-2.2","null","","null","<p style='font-size: 60px; color: red'>错误!</p>","","","","","","","","","","","","","","","","","","","","","","","","","","","","","","","","","","","","","","","","","","","","","","","",""
"","","","","","html-keyboard-response","89","1056400","0.0-5.0-1.0-1.0-0.0-2.0-0.0-0.0-0.3","null","fixation","null","<p style='font-size: 48px; color: white'>+</p >","","","","","","","","","","","","","","","","","","","","","","","","","","","","","","","","","","","","","","","","","","","","","","","",""
"","","","","","rdk","90","1057572","0.0-5.0-1.0-1.0-0.0-2.0-0.0-0.0-1.3","686","color_test","k","","true","[""d"",""k""]","k","3000","true","1","100","0","0","0","3","1","-1","2","300","300","[""hsl(0, 50%, 50%)"",""hsl(225, 50%, 50%)""]","[""hsl(225, 50%, 50%)"",""hsl(0, 50%, 50%)""]","0.5","0.54","0","circle","black","3","2","2","16.75609756097561","[10,17,17,17,17,17,17,17,16,17,16,17,17,17,17,17,17,17,17,17,17,17,17,17,17,17,17,17,17,17,17,17,17,17,16,17,17,17,17,17,17]","41","960","482","false","20","20","black","1","false","1","1","1920","964","k","staircase_color","","","","",""
"","","","","","html-keyboard-response","91","1058566","0.0-5.0-1.0-1.0-0.0-2.0-0.0-0.0-2.3","null","","null","<p style='font-size: 60px; color: green'>正确!</p>","","","","","","","","","","","","","","","","","","","","","","","","","","","","","","","","","","","","","","","","","","","","","","","",""
"","","","","","html-keyboard-response","92","1059567","0.0-5.0-1.0-1.0-0.0-2.0-0.0-0.0-0.4","null","fixation","null","<p style='font-size: 48px; color: white'>+</p >","","","","","","","","","","","","","","","","","","","","","","","","","","","","","","","","","","","","","","","","","","","","","","","",""
"","","","","","rdk","93","1061261","0.0-5.0-1.0-1.0-0.0-2.0-0.0-0.0-1.4","1208","color_test","k","","false","[""d"",""k""]","d","3000","true","1","100","0","0","0","3","1","-1","2","300","300","[""hsl(0, 50%, 50%)"",""hsl(225, 50%, 50%)""]","[""hsl(0, 50%, 50%)"",""hsl(225, 50%, 50%)""]","0.5","0.54","0","circle","black","3","2","2","16.75","[9,18,16,17,17,16,17,17,17,17,17,17,16,17,17,17,16,17,17,17,17,16,17,16,17,17,16,17,17,17,17,17,17,17,17,17,16,17,17,17,17,16,17,17,17,17,17,17,17,17,17,17,17,17,17,17,17,17,17,16,17,17,17,17,17,17,17,17,17,17,16,17]","72","960","482","false","20","20","black","1","false","1","1","1920","964","d","staircase_color","","","","",""
"","","","","","html-keyboard-response","94","1062266","0.0-5.0-1.0-1.0-0.0-2.0-0.0-0.0-2.4","null","","null","<p style='font-size: 60px; color: red'>错误!</p>","","","","","","","","","","","","","","","","","","","","","","","","","","","","","","","","","","","","","","","","","","","","","","","",""
"","","","","","html-keyboard-response","95","1063267","0.0-5.0-1.0-1.0-0.0-2.0-0.0-0.0-0.5","null","fixation","null","<p style='font-size: 48px; color: white'>+</p >","","","","","","","","","","","","","","","","","","","","","","","","","","","","","","","","","","","","","","","","","","","","","","","",""
"","","","","","rdk","96","1065221","0.0-5.0-1.0-1.0-0.0-2.0-0.0-0.0-1.5","1467","color_test","k","","true","[""d"",""k""]","k","3000","true","1","100","0","0","0","3","1","-1","2","300","300","[""hsl(0, 50%, 50%)"",""hsl(225, 50%, 50%)""]","[""hsl(225, 50%, 50%)"",""hsl(0, 50%, 50%)""]","0.5","0.54","0","circle","black","3","2","2","16.829545454545453","[10,17,16,17,16,17,17,17,17,17,17,17,17,17,17,17,17,17,17,17,17,17,17,17,17,17,17,17,17,17,17,17,17,17,17,17,17,17,17,17,17,17,17,16,17,17,17,17,17,17,17,17,17,17,17,17,17,17,17,17,17,17,17,17,16,17,17,17,17,17,17,17,17,17,16,17,16,17,17,17,17,17,17,17,17,17,16,16]","88","960","482","false","20","20","black","1","false","1","1","1920","964","k","staircase_color","","","","",""
"","","","","","html-keyboard-response","97","1066217","0.0-5.0-1.0-1.0-0.0-2.0-0.0-0.0-2.5","null","","null","<p style='font-size: 60px; color: green'>正确!</p>","","","","","","","","","","","","","","","","","","","","","","","","","","","","","","","","","","","","","","","","","","","","","","","",""
"","","","","","html-keyboard-response","98","1067217","0.0-5.0-1.0-1.0-0.0-2.0-0.0-0.0-0.6","null","fixation","null","<p style='font-size: 48px; color: white'>+</p >","","","","","","","","","","","","","","","","","","","","","","","","","","","","","","","","","","","","","","","","","","","","","","","",""
"","","","","","rdk","99","1068596","0.0-5.0-1.0-1.0-0.0-2.0-0.0-0.0-1.6","893","color_test","k","","true","[""d"",""k""]","k","3000","true","1","100","0","0","0","3","1","-1","2","300","300","[""hsl(0, 50%, 50%)"",""hsl(225, 50%, 50%)""]","[""hsl(225, 50%, 50%)"",""hsl(0, 50%, 50%)""]","0.5","0.54","0","circle","black","3","2","2","16.81132075471698","[10,16,17,17,17,17,17,17,17,17,17,17,17,17,17,17,17,17,16,17,17,17,17,17,17,17,17,17,17,17,17,17,17,17,16,17,17,17,17,17,17,17,17,17,17,17,17,17,17,17,17,17,17]","53","960","482","false","20","20","black","1","false","1","1","1920","964","k","staircase_color","","","","",""
"","","","","","html-keyboard-response","100","1069601","0.0-5.0-1.0-1.0-0.0-2.0-0.0-0.0-2.6","null","","null","<p style='font-size: 60px; color: green'>正确!</p>","","","","","","","","","","","","","","","","","","","","","","","","","","","","","","","","","","","","","","","","","","","","","","","",""
"","","","","","html-keyboard-response","101","1070601","0.0-5.0-1.0-1.0-0.0-2.0-0.0-0.0-0.7","null","fixation","null","<p style='font-size: 48px; color: white'>+</p >","","","","","","","","","","","","","","","","","","","","","","","","","","","","","","","","","","","","","","","","","","","","","","","",""
"","","","","","rdk","102","1072044","0.0-5.0-1.0-1.0-0.0-2.0-0.0-0.0-1.7","958","color_test","k","","false","[""d"",""k""]","d","3000","true","1","100","0","0","0","3","1","-1","2","300","300","[""hsl(0, 50%, 50%)"",""hsl(225, 50%, 50%)""]","[""hsl(0, 50%, 50%)"",""hsl(225, 50%, 50%)""]","0.5","0.54","0","circle","black","3","2","2","16.75438596491228","[10,16,17,17,17,17,17,17,17,17,17,17,17,17,17,17,17,17,17,17,17,16,17,17,17,17,16,17,17,17,17,17,17,17,17,17,17,16,17,17,16,17,17,17,17,16,17,17,17,17,17,17,17,17,16,17,17]","57","960","482","false","20","20","black","1","false","1","1","1920","964","d","staircase_color","","","","",""
"","","","","","html-keyboard-response","103","1073050","0.0-5.0-1.0-1.0-0.0-2.0-0.0-0.0-2.7","null","","null","<p style='font-size: 60px; color: red'>错误!</p>","","","","","","","","","","","","","","","","","","","","","","","","","","","","","","","","","","","","","","","","","","","","","","","",""
"","","","","","html-keyboard-response","104","1074050","0.0-5.0-1.0-1.0-0.0-2.0-0.0-0.0-0.8","null","fixation","null","<p style='font-size: 48px; color: white'>+</p >","","","","","","","","","","","","","","","","","","","","","","","","","","","","","","","","","","","","","","","","","","","","","","","",""
"","","","","","rdk","105","1075133","0.0-5.0-1.0-1.0-0.0-2.0-0.0-0.0-1.8","596","color_test","k","","true","[""d"",""k""]","k","3000","true","1","100","0","0","0","3","1","-1","2","300","300","[""hsl(0, 50%, 50%)"",""hsl(225, 50%, 50%)""]","[""hsl(225, 50%, 50%)"",""hsl(0, 50%, 50%)""]","0.5","0.54","0","circle","black","3","2","2","16.583333333333332","[8,17,17,16,17,17,17,17,17,17,17,17,16,17,17,17,17,17,17,17,17,17,16,17,17,17,17,17,15,17,17,17,16,17,17,17]","36","960","482","false","20","20","black","1","false","1","1","1920","964","k","staircase_color","","","","",""
"","","","","","html-keyboard-response","106","1076134","0.0-5.0-1.0-1.0-0.0-2.0-0.0-0.0-2.8","null","","null","<p style='font-size: 60px; color: green'>正确!</p>","","","","","","","","","","","","","","","","","","","","","","","","","","","","","","","","","","","","","","","","","","","","","","","",""
"","","","","","html-keyboard-response","107","1077134","0.0-5.0-1.0-1.0-0.0-2.0-0.0-0.0-0.9","null","fixation","null","<p style='font-size: 48px; color: white'>+</p >","","","","","","","","","","","","","","","","","","","","","","","","","","","","","","","","","","","","","","","","","","","","","","","",""
"","","","","","rdk","108","1079556","0.0-5.0-1.0-1.0-0.0-2.0-0.0-0.0-1.9","1937","color_test","d","","true","[""d"",""k""]","d","3000","true","1","100","0","0","0","3","1","-1","2","300","300","[""hsl(0, 50%, 50%)"",""hsl(225, 50%, 50%)""]","[""hsl(0, 50%, 50%)"",""hsl(225, 50%, 50%)""]","0.5","0.54","0","circle","black","3","2","2","16.92241379310345","[10,17,17,17,17,17,17,17,17,17,17,17,17,17,17,16,17,17,17,17,17,17,17,17,17,17,17,17,17,17,17,17,17,17,17,17,17,17,17,17,17,17,17,17,17,17,17,17,17,17,17,17,17,16,17,17,17,17,17,17,17,17,17,17,17,17,17,17,17,17,17,17,17,17,17,17,17,17,17,17,17,17,17,17,17,17,17,17,17,17,17,17,17,17,17,17,17,17,17,17,17,17,17,17,17,17,17,17,17,17,17,17,17,17,17,17]","116","960","482","false","20","20","black","1","false","1","1","1920","964","d","staircase_color","","","","",""
"","","","","","html-keyboard-response","109","1080551","0.0-5.0-1.0-1.0-0.0-2.0-0.0-0.0-2.9","null","","null","<p style='font-size: 60px; color: green'>正确!</p>","","","","","","","","","","","","","","","","","","","","","","","","","","","","","","","","","","","","","","","","","","","","","","","",""
"","","","","","html-keyboard-response","110","1081550","0.0-5.0-1.0-1.0-0.0-2.0-0.0-0.0-0.10","null","fixation","null","<p style='font-size: 48px; color: white'>+</p >","","","","","","","","","","","","","","","","","","","","","","","","","","","","","","","","","","","","","","","","","","","","","","","",""
"","","","","","rdk","111","1083324","0.0-5.0-1.0-1.0-0.0-2.0-0.0-0.0-1.10","1288","color_test","k","","true","[""d"",""k""]","k","3000","true","1","100","0","0","0","3","1","-1","2","300","300","[""hsl(0, 50%, 50%)"",""hsl(225, 50%, 50%)""]","[""hsl(225, 50%, 50%)"",""hsl(0, 50%, 50%)""]","0.5","0.54","0","circle","black","3","2","2","16.90909090909091","[11,17,17,17,17,17,17,17,17,17,17,17,17,17,17,17,17,17,17,17,17,17,17,17,17,17,17,17,17,17,17,17,17,17,17,17,17,17,17,17,17,17,17,16,17,17,17,17,17,17,17,17,17,17,17,17,17,17,17,17,17,17,17,17,17,17,17,17,17,17,17,17,17,17,17,17,17]","77","960","482","false","20","20","black","1","false","1","1","1920","964","k","staircase_color","","","","",""
"","","","","","html-keyboard-response","112","1084333","0.0-5.0-1.0-1.0-0.0-2.0-0.0-0.0-2.10","null","","null","<p style='font-size: 60px; color: green'>正确!</p>","","","","","","","","","","","","","","","","","","","","","","","","","","","","","","","","","","","","","","","","","","","","","","","",""
"","","","","","html-keyboard-response","113","1085333","0.0-5.0-1.0-1.0-0.0-2.0-0.0-0.0-0.11","null","fixation","null","<p style='font-size: 48px; color: white'>+</p >","","","","","","","","","","","","","","","","","","","","","","","","","","","","","","","","","","","","","","","","","","","","","","","",""
"","","","","","rdk","114","1087613","0.0-5.0-1.0-1.0-0.0-2.0-0.0-0.0-1.11","1793","color_test","d","","true","[""d"",""k""]","d","3000","true","1","100","0","0","0","3","1","-1","2","300","300","[""hsl(0, 50%, 50%)"",""hsl(225, 50%, 50%)""]","[""hsl(0, 50%, 50%)"",""hsl(225, 50%, 50%)""]","0.5","0.54","0","circle","black","3","2","2","16.850467289719628","[11,17,17,17,17,17,16,17,17,17,17,17,17,16,17,17,17,17,17,17,16,16,17,16,17,16,17,16,17,17,16,17,17,17,17,17,17,17,17,17,17,17,17,17,17,17,17,17,17,17,17,17,17,17,17,17,17,17,17,16,17,17,17,17,17,17,17,17,17,17,17,17,17,17,17,17,17,17,17,17,17,17,17,17,17,17,17,17,17,17,17,17,17,17,17,17,17,17,17,16,17,17,17,17,17,17,17]","107","960","482","false","20","20","black","1","false","1","1","1920","964","d","staircase_color","","","","",""
"","","","","","html-keyboard-response","115","1088617","0.0-5.0-1.0-1.0-0.0-2.0-0.0-0.0-2.11","null","","null","<p style='font-size: 60px; color: green'>正确!</p>","","","","","","","","","","","","","","","","","","","","","","","","","","","","","","","","","","","","","","","","","","","","","","","",""
"","","","","","html-keyboard-response","116","1091117","0.0-5.0-1.0-1.0-0.0-2.0-0.0-1.0","null","","null","<p style='font-size: 35px; color: white'>您的正确率为： 67% 。平均反应时为：1101毫秒。</p>","","","","","","","","","","","","","","","","","","","","","","","","","","","","","","","","","","","","","","","","","","","","","","","",""
"","","","","","html-keyboard-response","117","1092117","0.0-5.0-1.0-1.0-0.0-3.0-0.0-0.0-0.0","null","fixation","null","<p style='font-size: 48px; color: white'>+</p >","","","","","","","","","","","","","","","","","","","","","","","","","","","","","","","","","","","","","","","","","","","","","","","",""
"","","","","","rdk","118","1095157","0.0-5.0-1.0-1.0-0.0-3.0-0.0-0.0-1.0","2558","color_test","k","","true","[""d"",""k""]","k","3000","true","1","100","0","0","0","3","1","-1","2","300","300","[""hsl(0, 50%, 50%)"",""hsl(225, 50%, 50%)""]","[""hsl(225, 50%, 50%)"",""hsl(0, 50%, 50%)""]","0.5","0.52","0","circle","black","3","2","2","16.96732026143791","[14,17,17,17,17,17,17,17,17,17,17,17,17,17,17,17,17,17,17,17,17,17,17,17,17,17,17,17,17,17,17,17,17,17,17,17,17,17,17,17,17,17,17,17,17,17,17,17,17,17,17,17,17,17,17,17,17,17,17,17,17,17,17,17,17,17,17,17,17,17,17,17,17,17,17,17,17,17,17,17,17,17,17,17,17,17,17,17,17,17,17,17,17,17,17,17,17,17,17,17,17,17,17,17,17,17,17,17,17,17,17,17,17,17,17,17,17,17,17,17,17,17,17,17,17,17,17,16,17,17,17,16,17,17,17,17,17,17,17,17,17,17,17,17,17,17,17,17,17,17,17,17,17]","153","960","482","false","20","20","black","1","false","1","1","1920","964","k","staircase_color","","","","",""
"","","","","","html-keyboard-response","119","1096149","0.0-5.0-1.0-1.0-0.0-3.0-0.0-0.0-2.0","null","","null","<p style='font-size: 60px; color: green'>正确!</p>","","","","","","","","","","","","","","","","","","","","","","","","","","","","","","","","","","","","","","","","","","","","","","","",""
"","","","","","html-keyboard-response","120","1097151","0.0-5.0-1.0-1.0-0.0-3.0-0.0-0.0-0.1","null","fixation","null","<p style='font-size: 48px; color: white'>+</p >","","","","","","","","","","","","","","","","","","","","","","","","","","","","","","","","","","","","","","","","","","","","","","","",""
"","","","","","rdk","121","1099685","0.0-5.0-1.0-1.0-0.0-3.0-0.0-0.0-1.1","2048","color_test","k","","false","[""d"",""k""]","d","3000","true","1","100","0","0","0","3","1","-1","2","300","300","[""hsl(0, 50%, 50%)"",""hsl(225, 50%, 50%)""]","[""hsl(0, 50%, 50%)"",""hsl(225, 50%, 50%)""]","0.5","0.52","0","circle","black","3","2","2","16.89430894308943","[10,17,17,17,17,17,17,17,17,17,17,17,17,17,17,17,17,17,17,17,17,17,17,17,17,17,17,17,17,17,17,17,17,17,17,17,17,17,17,17,17,17,17,17,17,17,17,17,17,17,17,17,17,17,17,17,17,17,17,17,17,17,17,17,17,17,17,16,17,17,16,17,16,17,17,17,17,17,17,17,17,16,17,17,17,17,17,17,17,16,17,16,17,17,17,17,17,17,17,17,17,17,17,17,17,17,17,17,17,17,17,17,17,17,17,17,17,17,17,17,17,17,17]","123","960","482","false","20","20","black","1","false","1","1","1920","964","d","staircase_color","","","","",""
"","","","","","html-keyboard-response","122","1100684","0.0-5.0-1.0-1.0-0.0-3.0-0.0-0.0-2.1","null","","null","<p style='font-size: 60px; color: red'>错误!</p>","","","","","","","","","","","","","","","","","","","","","","","","","","","","","","","","","","","","","","","","","","","","","","","",""
"","","","","","html-keyboard-response","123","1101670","0.0-5.0-1.0-1.0-0.0-3.0-0.0-0.0-0.2","null","fixation","null","<p style='font-size: 48px; color: white'>+</p >","","","","","","","","","","","","","","","","","","","","","","","","","","","","","","","","","","","","","","","","","","","","","","","",""
"","","","","","rdk","124","1104117","0.0-5.0-1.0-1.0-0.0-3.0-0.0-0.0-1.2","1957","color_test","d","","true","[""d"",""k""]","d","3000","true","1","100","0","0","0","3","1","-1","2","300","300","[""hsl(0, 50%, 50%)"",""hsl(225, 50%, 50%)""]","[""hsl(0, 50%, 50%)"",""hsl(225, 50%, 50%)""]","0.5","0.52","0","circle","black","3","2","2","16.73728813559322","[3,18,16,17,18,17,17,17,16,17,15,17,17,17,16,17,17,17,17,16,17,17,17,17,17,17,17,17,17,17,17,16,17,17,17,17,17,17,17,17,17,16,17,17,17,16,17,17,17,17,17,17,17,17,17,16,17,17,17,17,17,17,17,17,17,17,17,17,17,17,17,17,17,16,17,17,17,17,17,16,17,17,17,17,17,16,17,17,17,16,17,17,17,17,17,17,16,17,17,17,17,17,17,17,16,17,17,17,16,17,17,17,17,16,17,16,17,17]","118","960","482","false","20","20","black","1","false","1","1","1920","964","d","staircase_color","","","","",""
"","","","","","html-keyboard-response","125","1105117","0.0-5.0-1.0-1.0-0.0-3.0-0.0-0.0-2.2","null","","null","<p style='font-size: 60px; color: green'>正确!</p>","","","","","","","","","","","","","","","","","","","","","","","","","","","","","","","","","","","","","","","","","","","","","","","",""
"","","","","","html-keyboard-response","126","1106117","0.0-5.0-1.0-1.0-0.0-3.0-0.0-0.0-0.3","null","fixation","null","<p style='font-size: 48px; color: white'>+</p >","","","","","","","","","","","","","","","","","","","","","","","","","","","","","","","","","","","","","","","","","","","","","","","",""
"","","","","","rdk","127","1108252","0.0-5.0-1.0-1.0-0.0-3.0-0.0-0.0-1.3","1649","color_test","k","","true","[""d"",""k""]","k","3000","true","1","100","0","0","0","3","1","-1","2","300","300","[""hsl(0, 50%, 50%)"",""hsl(225, 50%, 50%)""]","[""hsl(225, 50%, 50%)"",""hsl(0, 50%, 50%)""]","0.5","0.52","0","circle","black","3","2","2","16.92929292929293","[10,17,17,17,17,17,17,17,17,17,17,17,17,17,17,17,17,17,17,17,17,17,17,17,17,17,17,17,17,17,17,17,17,17,17,17,17,17,17,17,17,17,17,17,17,17,17,17,17,17,17,17,17,17,17,17,17,17,17,17,17,17,17,17,17,17,17,17,17,17,17,17,17,17,17,17,17,17,17,17,17,17,17,17,17,17,17,17,17,17,17,17,17,17,17,17,17,17,17]","99","960","482","false","20","20","black","1","false","1","1","1920","964","k","staircase_color","","","","",""
"","","","","","html-keyboard-response","128","1109250","0.0-5.0-1.0-1.0-0.0-3.0-0.0-0.0-2.3","null","","null","<p style='font-size: 60px; color: green'>正确!</p>","","","","","","","","","","","","","","","","","","","","","","","","","","","","","","","","","","","","","","","","","","","","","","","",""
"","","","","","html-keyboard-response","129","1110250","0.0-5.0-1.0-1.0-0.0-3.0-0.0-0.0-0.4","null","fixation","null","<p style='font-size: 48px; color: white'>+</p >","","","","","","","","","","","","","","","","","","","","","","","","","","","","","","","","","","","","","","","","","","","","","","","",""
"","","","","","rdk","130","1112773","0.0-5.0-1.0-1.0-0.0-3.0-0.0-0.0-1.4","2036","color_test","k","","true","[""d"",""k""]","k","3000","true","1","100","0","0","0","3","1","-1","2","300","300","[""hsl(0, 50%, 50%)"",""hsl(225, 50%, 50%)""]","[""hsl(225, 50%, 50%)"",""hsl(0, 50%, 50%)""]","0.5","0.52","0","circle","black","3","2","2","16.795081967213115","[9,17,17,17,17,17,17,17,17,17,17,17,17,17,16,17,17,17,16,17,17,17,17,17,17,16,17,17,16,17,17,17,17,17,17,17,17,17,17,17,17,17,16,17,16,17,17,17,17,16,17,17,17,17,17,17,17,17,17,17,17,17,17,16,17,17,16,17,16,17,17,17,17,17,15,17,17,17,16,18,16,17,17,17,17,16,17,17,17,16,17,17,17,17,17,17,17,17,17,17,17,17,17,17,17,16,17,17,17,17,17,16,17,17,17,17,17,17,17,17,17,17]","122","960","482","false","20","20","black","1","false","1","1","1920","964","k","staircase_color","","","","",""
"","","","","","html-keyboard-response","131","1113767","0.0-5.0-1.0-1.0-0.0-3.0-0.0-0.0-2.4","null","","null","<p style='font-size: 60px; color: green'>正确!</p>","","","","","","","","","","","","","","","","","","","","","","","","","","","","","","","","","","","","","","","","","","","","","","","",""
"","","","","","html-keyboard-response","132","1114767","0.0-5.0-1.0-1.0-0.0-3.0-0.0-0.0-0.5","null","fixation","null","<p style='font-size: 48px; color: white'>+</p >","","","","","","","","","","","","","","","","","","","","","","","","","","","","","","","","","","","","","","","","","","","","","","","",""
"","","","","","rdk","133","1117109","0.0-5.0-1.0-1.0-0.0-3.0-0.0-0.0-1.5","1855","color_test","k","","false","[""d"",""k""]","d","3000","true","1","100","0","0","0","3","1","-1","2","300","300","[""hsl(0, 50%, 50%)"",""hsl(225, 50%, 50%)""]","[""hsl(0, 50%, 50%)"",""hsl(225, 50%, 50%)""]","0.5","0.52","0","circle","black","3","2","2","16.8018018018018","[10,17,16,17,16,17,17,16,17,16,17,17,17,17,17,17,17,17,17,17,17,17,17,17,17,17,17,17,17,16,17,17,17,17,17,17,17,17,17,17,16,16,17,16,17,17,16,17,17,17,17,17,17,17,17,16,16,17,17,17,17,16,17,17,17,17,17,17,17,17,17,17,17,17,17,17,17,17,17,17,17,17,17,17,17,17,17,17,16,17,17,17,16,17,17,16,17,17,17,17,17,17,17,17,17,17,17,17,17,17,17]","111","960","482","false","20","20","black","1","false","1","1","1920","964","d","staircase_color","","","","",""
"","","","","","html-keyboard-response","134","1118118","0.0-5.0-1.0-1.0-0.0-3.0-0.0-0.0-2.5","null","","null","<p style='font-size: 60px; color: red'>错误!</p>","","","","","","","","","","","","","","","","","","","","","","","","","","","","","","","","","","","","","","","","","","","","","","","",""
"","","","","","html-keyboard-response","135","1119117","0.0-5.0-1.0-1.0-0.0-3.0-0.0-0.0-0.6","null","fixation","null","<p style='font-size: 48px; color: white'>+</p >","","","","","","","","","","","","","","","","","","","","","","","","","","","","","","","","","","","","","","","","","","","","","","","",""
"","","","","","rdk","136","1121181","0.0-5.0-1.0-1.0-0.0-3.0-0.0-0.0-1.6","1578","color_test","k","","false","[""d"",""k""]","d","3000","true","1","100","0","0","0","3","1","-1","2","300","300","[""hsl(0, 50%, 50%)"",""hsl(225, 50%, 50%)""]","[""hsl(0, 50%, 50%)"",""hsl(225, 50%, 50%)""]","0.5","0.52","0","circle","black","3","2","2","16.872340425531913","[11,17,17,17,17,17,17,17,17,17,17,17,17,17,17,17,17,17,17,17,17,17,16,17,17,17,17,16,17,17,17,17,17,17,17,17,17,16,17,17,17,17,17,16,17,17,17,17,17,17,17,17,17,17,17,16,17,17,17,17,17,17,17,17,17,17,17,17,17,17,17,17,16,17,17,17,17,17,17,17,17,17,17,17,17,17,17,17,17,17,17,17,17,17]","94","960","482","false","20","20","black","1","false","1","1","1920","964","d","staircase_color","","","","",""
"","","","","","html-keyboard-response","137","1122184","0.0-5.0-1.0-1.0-0.0-3.0-0.0-0.0-2.6","null","","null","<p style='font-size: 60px; color: red'>错误!</p>","","","","","","","","","","","","","","","","","","","","","","","","","","","","","","","","","","","","","","","","","","","","","","","",""
"","","","","","html-keyboard-response","138","1123184","0.0-5.0-1.0-1.0-0.0-3.0-0.0-0.0-0.7","null","fixation","null","<p style='font-size: 48px; color: white'>+</p >","","","","","","","","","","","","","","","","","","","","","","","","","","","","","","","","","","","","","","","","","","","","","","","",""
"","","","","","rdk","139","1124901","0.0-5.0-1.0-1.0-0.0-3.0-0.0-0.0-1.7","1231","color_test","k","","true","[""d"",""k""]","k","3000","true","1","100","0","0","0","3","1","-1","2","300","300","[""hsl(0, 50%, 50%)"",""hsl(225, 50%, 50%)""]","[""hsl(225, 50%, 50%)"",""hsl(0, 50%, 50%)""]","0.5","0.52","0","circle","black","3","2","2","16.905405405405407","[10,17,17,17,17,17,17,17,17,17,17,17,17,17,17,17,17,17,17,17,17,17,17,17,17,17,17,17,17,17,17,17,17,17,17,17,17,17,17,17,17,17,17,17,17,17,17,17,17,17,17,17,17,17,17,17,17,17,17,17,17,17,17,17,17,17,17,17,17,17,17,17,17,17]","74","960","482","false","20","20","black","1","false","1","1","1920","964","k","staircase_color","","","","",""
"","","","","","html-keyboard-response","140","1125900","0.0-5.0-1.0-1.0-0.0-3.0-0.0-0.0-2.7","null","","null","<p style='font-size: 60px; color: green'>正确!</p>","","","","","","","","","","","","","","","","","","","","","","","","","","","","","","","","","","","","","","","","","","","","","","","",""
"","","","","","html-keyboard-response","141","1126901","0.0-5.0-1.0-1.0-0.0-3.0-0.0-0.0-0.8","null","fixation","null","<p style='font-size: 48px; color: white'>+</p >","","","","","","","","","","","","","","","","","","","","","","","","","","","","","","","","","","","","","","","","","","","","","","","",""
"","","","","","rdk","142","1128751","0.0-5.0-1.0-1.0-0.0-3.0-0.0-0.0-1.8","1366","color_test","k","","false","[""d"",""k""]","d","3000","true","1","100","0","0","0","3","1","-1","2","300","300","[""hsl(0, 50%, 50%)"",""hsl(225, 50%, 50%)""]","[""hsl(0, 50%, 50%)"",""hsl(225, 50%, 50%)""]","0.5","0.52","0","circle","black","3","2","2","16.841463414634145","[12,17,17,17,17,17,18,16,17,17,17,17,17,17,16,17,17,17,17,17,17,17,17,17,16,17,16,17,16,17,17,16,17,17,16,17,17,16,17,17,17,17,17,16,17,17,17,17,17,17,17,17,17,17,17,17,17,17,17,17,17,17,17,17,17,17,17,16,17,17,17,17,17,17,17,17,17,17,17,17,17,18]","82","960","482","false","20","20","black","1","false","1","1","1920","964","d","staircase_color","","","","",""
"","","","","","html-keyboard-response","143","1129752","0.0-5.0-1.0-1.0-0.0-3.0-0.0-0.0-2.8","null","","null","<p style='font-size: 60px; color: red'>错误!</p>","","","","","","","","","","","","","","","","","","","","","","","","","","","","","","","","","","","","","","","","","","","","","","","",""
"","","","","","html-keyboard-response","144","1130750","0.0-5.0-1.0-1.0-0.0-3.0-0.0-0.0-0.9","null","fixation","null","<p style='font-size: 48px; color: white'>+</p >","","","","","","","","","","","","","","","","","","","","","","","","","","","","","","","","","","","","","","","","","","","","","","","",""
"","","","","","rdk","145","1133751","0.0-5.0-1.0-1.0-0.0-3.0-0.0-0.0-1.9","2512","color_test","k","","false","[""d"",""k""]","d","3000","true","1","100","0","0","0","3","1","-1","2","300","300","[""hsl(0, 50%, 50%)"",""hsl(225, 50%, 50%)""]","[""hsl(0, 50%, 50%)"",""hsl(225, 50%, 50%)""]","0.5","0.52","0","circle","black","3","2","2","16.821192052980134","[9,18,17,17,17,17,17,17,17,17,17,17,17,16,17,17,17,17,17,17,17,17,17,17,17,17,17,17,17,17,17,17,17,15,17,17,17,17,17,17,17,17,17,17,17,17,17,17,16,17,17,17,17,17,17,17,17,17,17,17,17,16,17,17,17,17,17,17,17,16,17,17,17,17,16,17,16,17,17,17,17,17,17,17,17,17,17,17,17,15,17,17,17,17,17,18,17,17,17,16,17,16,17,16,17,17,17,17,17,17,17,17,16,17,17,16,17,17,17,17,17,17,16,17,16,17,17,17,16,17,17,17,17,17,17,17,16,17,17,17,16,17,16,17,17,17,17,17,17,17,17]","151","960","482","false","20","20","black","1","false","1","1","1920","964","d","staircase_color","","","","",""
"","","","","","html-keyboard-response","146","1134751","0.0-5.0-1.0-1.0-0.0-3.0-0.0-0.0-2.9","null","","null","<p style='font-size: 60px; color: red'>错误!</p>","","","","","","","","","","","","","","","","","","","","","","","","","","","","","","","","","","","","","","","","","","","","","","","",""
"","","","","","html-keyboard-response","147","1135751","0.0-5.0-1.0-1.0-0.0-3.0-0.0-0.0-0.10","null","fixation","null","<p style='font-size: 48px; color: white'>+</p >","","","","","","","","","","","","","","","","","","","","","","","","","","","","","","","","","","","","","","","","","","","","","","","",""
"","","","","","rdk","148","1137301","0.0-5.0-1.0-1.0-0.0-3.0-0.0-0.0-1.10","1064","color_test","k","","true","[""d"",""k""]","k","3000","true","1","100","0","0","0","3","1","-1","2","300","300","[""hsl(0, 50%, 50%)"",""hsl(225, 50%, 50%)""]","[""hsl(225, 50%, 50%)"",""hsl(0, 50%, 50%)""]","0.5","0.52","0","circle","black","3","2","2","16.84375","[10,17,17,17,17,17,17,17,17,17,17,17,16,17,17,17,17,17,17,17,17,17,17,17,17,17,17,17,17,17,17,17,17,17,17,17,17,17,17,17,17,17,17,17,17,17,17,17,17,17,16,17,17,17,17,17,16,17,17,17,17,17,17,17]","64","960","482","false","20","20","black","1","false","1","1","1920","964","k","staircase_color","","","","",""
"","","","","","html-keyboard-response","149","1138301","0.0-5.0-1.0-1.0-0.0-3.0-0.0-0.0-2.10","null","","null","<p style='font-size: 60px; color: green'>正确!</p>","","","","","","","","","","","","","","","","","","","","","","","","","","","","","","","","","","","","","","","","","","","","","","","",""
"","","","","","html-keyboard-response","150","1139300","0.0-5.0-1.0-1.0-0.0-3.0-0.0-0.0-0.11","null","fixation","null","<p style='font-size: 48px; color: white'>+</p >","","","","","","","","","","","","","","","","","","","","","","","","","","","","","","","","","","","","","","","","","","","","","","","",""
"","","","","","rdk","151","1141981","0.0-5.0-1.0-1.0-0.0-3.0-0.0-0.0-1.11","2193","color_test","k","","true","[""d"",""k""]","k","3000","true","1","100","0","0","0","3","1","-1","2","300","300","[""hsl(0, 50%, 50%)"",""hsl(225, 50%, 50%)""]","[""hsl(225, 50%, 50%)"",""hsl(0, 50%, 50%)""]","0.5","0.52","0","circle","black","3","2","2","16.84732824427481","[9,18,16,17,17,17,17,17,17,17,17,16,17,17,17,17,16,17,16,17,17,16,17,17,17,17,17,17,17,17,17,17,17,17,17,17,17,17,17,17,17,17,17,17,17,17,17,17,17,17,17,17,17,17,17,17,17,17,17,17,17,17,17,15,17,17,17,17,17,17,17,16,17,17,16,17,17,17,17,17,17,17,17,17,17,17,17,17,17,17,17,17,17,17,17,17,17,17,17,16,17,17,17,17,17,17,17,17,17,17,17,17,17,17,17,17,17,16,17,17,17,17,16,17,16,17,17,17,17,17,17]","131","960","482","false","20","20","black","1","false","1","1","1920","964","k","staircase_color","","","","",""
"","","","","","html-keyboard-response","152","1142984","0.0-5.0-1.0-1.0-0.0-3.0-0.0-0.0-2.11","null","","null","<p style='font-size: 60px; color: green'>正确!</p>","","","","","","","","","","","","","","","","","","","","","","","","","","","","","","","","","","","","","","","","","","","","","","","",""
"","","","","","html-keyboard-response","153","1145483","0.0-5.0-1.0-1.0-0.0-3.0-0.0-1.0","null","","null","<p style='font-size: 35px; color: white'>您的正确率为： 58% 。平均反应时为：1837毫秒。</p>","","","","","","","","","","","","","","","","","","","","","","","","","","","","","","","","","","","","","","","","","","","","","","","",""
"","","","","","html-keyboard-response","154","1146485","0.0-5.0-1.0-1.0-0.0-4.0-0.0-0.0-0.0","null","fixation","null","<p style='font-size: 48px; color: white'>+</p >","","","","","","","","","","","","","","","","","","","","","","","","","","","","","","","","","","","","","","","","","","","","","","","",""
"","","","","","rdk","155","1148725","0.0-5.0-1.0-1.0-0.0-4.0-0.0-0.0-1.0","1751","color_test","d","","true","[""d"",""k""]","d","3000","true","1","100","0","0","0","3","1","-1","2","300","300","[""hsl(0, 50%, 50%)"",""hsl(225, 50%, 50%)""]","[""hsl(0, 50%, 50%)"",""hsl(225, 50%, 50%)""]","0.5","0.6","0","circle","black","3","2","2","16.82857142857143","[5,17,17,16,17,17,17,17,17,17,16,17,17,17,17,17,17,17,17,17,17,17,17,17,17,17,17,17,17,17,17,17,17,17,17,17,17,17,17,17,17,17,17,17,17,17,17,17,17,17,17,17,17,17,17,17,17,17,17,17,17,17,16,17,17,17,16,17,17,16,17,17,17,17,16,17,17,17,17,17,17,17,17,17,17,17,17,17,17,17,17,17,17,17,17,17,17,17,17,17,17,17,17,17,17]","105","960","482","false","20","20","black","1","false","1","1","1920","964","d","staircase_color","","","","",""
"","","","","","html-keyboard-response","156","1149718","0.0-5.0-1.0-1.0-0.0-4.0-0.0-0.0-2.0","null","","null","<p style='font-size: 60px; color: green'>正确!</p>","","","","","","","","","","","","","","","","","","","","","","","","","","","","","","","","","","","","","","","","","","","","","","","",""
"","","","","","html-keyboard-response","157","1150717","0.0-5.0-1.0-1.0-0.0-4.0-0.0-0.0-0.1","null","fixation","null","<p style='font-size: 48px; color: white'>+</p >","","","","","","","","","","","","","","","","","","","","","","","","","","","","","","","","","","","","","","","","","","","","","","","",""
"","","","","","rdk","158","1151933","0.0-5.0-1.0-1.0-0.0-4.0-0.0-0.0-1.1","730","color_test","k","","true","[""d"",""k""]","k","3000","true","1","100","0","0","0","3","1","-1","2","300","300","[""hsl(0, 50%, 50%)"",""hsl(225, 50%, 50%)""]","[""hsl(225, 50%, 50%)"",""hsl(0, 50%, 50%)""]","0.5","0.6","0","circle","black","3","2","2","16.772727272727273","[10,17,16,17,16,17,17,17,17,17,17,17,17,17,16,17,17,17,17,17,17,17,17,17,17,17,17,17,17,17,17,17,17,17,17,17,17,17,17,17,17,17,17,17]","44","960","482","false","20","20","black","1","false","1","1","1920","964","k","staircase_color","","","","",""
"","","","","","html-keyboard-response","159","1152934","0.0-5.0-1.0-1.0-0.0-4.0-0.0-0.0-2.1","null","","null","<p style='font-size: 60px; color: green'>正确!</p>","","","","","","","","","","","","","","","","","","","","","","","","","","","","","","","","","","","","","","","","","","","","","","","",""
"","","","","","html-keyboard-response","160","1153934","0.0-5.0-1.0-1.0-0.0-4.0-0.0-0.0-0.2","null","fixation","null","<p style='font-size: 48px; color: white'>+</p >","","","","","","","","","","","","","","","","","","","","","","","","","","","","","","","","","","","","","","","","","","","","","","","",""
"","","","","","rdk","161","1156315","0.0-5.0-1.0-1.0-0.0-4.0-0.0-0.0-1.2","1895","color_test","d","","true","[""d"",""k""]","d","3000","true","1","100","0","0","0","3","1","-1","2","300","300","[""hsl(0, 50%, 50%)"",""hsl(225, 50%, 50%)""]","[""hsl(0, 50%, 50%)"",""hsl(225, 50%, 50%)""]","0.5","0.6","0","circle","black","3","2","2","16.859649122807017","[10,17,17,17,17,17,17,17,17,17,17,17,17,17,17,17,17,17,17,17,16,17,17,17,16,17,16,17,17,17,17,17,17,17,17,17,17,17,17,17,17,17,17,17,17,17,17,17,17,17,17,17,17,17,17,17,17,17,17,17,16,17,17,17,17,17,17,17,16,17,17,17,17,17,17,17,17,17,17,17,17,17,17,17,17,17,17,17,17,17,16,17,17,17,16,17,17,17,17,17,17,17,17,17,17,17,15,17,17,17,17,17,17,17]","114","960","482","false","20","20","black","1","false","1","1","1920","964","d","staircase_color","","","","",""
"","","","","","html-keyboard-response","162","1157316","0.0-5.0-1.0-1.0-0.0-4.0-0.0-0.0-2.2","null","","null","<p style='font-size: 60px; color: green'>正确!</p>","","","","","","","","","","","","","","","","","","","","","","","","","","","","","","","","","","","","","","","","","","","","","","","",""
"","","","","","html-keyboard-response","163","1158316","0.0-5.0-1.0-1.0-0.0-4.0-0.0-0.0-0.3","null","fixation","null","<p style='font-size: 48px; color: white'>+</p >","","","","","","","","","","","","","","","","","","","","","","","","","","","","","","","","","","","","","","","","","","","","","","","",""
"","","","","","rdk","164","1160540","0.0-5.0-1.0-1.0-0.0-4.0-0.0-0.0-1.3","1737","color_test","k","","true","[""d"",""k""]","k","3000","true","1","100","0","0","0","3","1","-1","2","300","300","[""hsl(0, 50%, 50%)"",""hsl(225, 50%, 50%)""]","[""hsl(225, 50%, 50%)"",""hsl(0, 50%, 50%)""]","0.5","0.6","0","circle","black","3","2","2","16.903846153846153","[10,17,17,17,17,17,17,17,17,17,17,17,17,17,17,17,16,17,17,17,17,17,17,17,17,17,16,17,17,17,17,17,17,17,17,17,16,17,17,17,17,17,17,17,17,17,17,17,17,17,17,17,17,17,17,17,17,17,17,17,17,17,17,17,17,17,17,17,17,17,17,17,17,17,17,17,17,17,17,17,17,17,17,17,17,17,17,17,17,17,17,17,17,17,17,17,17,17,17,17,17,17,17,17]","104","960","482","false","20","20","black","1","false","1","1","1920","964","k","staircase_color","","","","",""
"","","","","","html-keyboard-response","165","1161533","0.0-5.0-1.0-1.0-0.0-4.0-0.0-0.0-2.3","null","","null","<p style='font-size: 60px; color: green'>正确!</p>","","","","","","","","","","","","","","","","","","","","","","","","","","","","","","","","","","","","","","","","","","","","","","","",""
"","","","","","html-keyboard-response","166","1162533","0.0-5.0-1.0-1.0-0.0-4.0-0.0-0.0-0.4","null","fixation","null","<p style='font-size: 48px; color: white'>+</p >","","","","","","","","","","","","","","","","","","","","","","","","","","","","","","","","","","","","","","","","","","","","","","","",""
"","","","","","rdk","167","1164244","0.0-5.0-1.0-1.0-0.0-4.0-0.0-0.0-1.4","1225","color_test","d","","true","[""d"",""k""]","d","3000","true","1","100","0","0","0","3","1","-1","2","300","300","[""hsl(0, 50%, 50%)"",""hsl(225, 50%, 50%)""]","[""hsl(0, 50%, 50%)"",""hsl(225, 50%, 50%)""]","0.5","0.6","0","circle","black","3","2","2","16.80821917808219","[10,17,17,17,17,17,17,17,17,17,17,17,17,17,17,17,17,17,17,16,17,17,17,16,17,17,17,17,17,17,17,17,17,17,16,17,17,17,17,17,17,17,16,17,17,17,17,17,17,16,17,17,16,17,17,17,17,17,17,17,17,17,17,17,17,17,17,17,17,17,16,17,17]","73","960","482","false","20","20","black","1","false","1","1","1920","964","d","staircase_color","","","","",""
"","","","","","html-keyboard-response","168","1165250","0.0-5.0-1.0-1.0-0.0-4.0-0.0-0.0-2.4","null","","null","<p style='font-size: 60px; color: green'>正确!</p>","","","","","","","","","","","","","","","","","","","","","","","","","","","","","","","","","","","","","","","","","","","","","","","",""
"","","","","","html-keyboard-response","169","1166249","0.0-5.0-1.0-1.0-0.0-4.0-0.0-0.0-0.5","null","fixation","null","<p style='font-size: 48px; color: white'>+</p >","","","","","","","","","","","","","","","","","","","","","","","","","","","","","","","","","","","","","","","","","","","","","","","",""
"","","","","","rdk","170","1167451","0.0-5.0-1.0-1.0-0.0-4.0-0.0-0.0-1.5","715","color_test","k","","true","[""d"",""k""]","k","3000","true","1","100","0","0","0","3","1","-1","2","300","300","[""hsl(0, 50%, 50%)"",""hsl(225, 50%, 50%)""]","[""hsl(225, 50%, 50%)"",""hsl(0, 50%, 50%)""]","0.5","0.6","0","circle","black","3","2","2","16.767441860465116","[11,17,17,17,17,16,17,17,17,17,17,17,17,17,17,15,17,17,17,17,17,17,17,17,17,17,17,17,17,17,17,17,17,17,17,17,17,17,17,17,17,16,17]","43","960","482","false","20","20","black","1","false","1","1","1920","964","k","staircase_color","","","","",""
"","","","","","html-keyboard-response","171","1168449","0.0-5.0-1.0-1.0-0.0-4.0-0.0-0.0-2.5","null","","null","<p style='font-size: 60px; color: green'>正确!</p>","","","","","","","","","","","","","","","","","","","","","","","","","","","","","","","","","","","","","","","","","","","","","","","",""
"","","","","","html-keyboard-response","172","1169449","0.0-5.0-1.0-1.0-0.0-4.0-0.0-0.0-0.6","null","fixation","null","<p style='font-size: 48px; color: white'>+</p >","","","","","","","","","","","","","","","","","","","","","","","","","","","","","","","","","","","","","","","","","","","","","","","",""
"","","","","","rdk","173","1170996","0.0-5.0-1.0-1.0-0.0-4.0-0.0-0.0-1.6","1060","color_test","d","","true","[""d"",""k""]","d","3000","true","1","100","0","0","0","3","1","-1","2","300","300","[""hsl(0, 50%, 50%)"",""hsl(225, 50%, 50%)""]","[""hsl(0, 50%, 50%)"",""hsl(225, 50%, 50%)""]","0.5","0.6","0","circle","black","3","2","2","16.682539682539684","[10,16,17,17,17,17,17,17,17,17,17,17,17,17,17,17,16,17,17,17,17,17,17,17,15,17,16,17,16,17,17,17,17,16,17,17,17,17,17,17,17,17,16,17,17,17,17,16,17,17,17,16,17,16,17,16,17,17,17,16,17,17,17]","63","960","482","false","20","20","black","1","false","1","1","1920","964","d","staircase_color","","","","",""
"","","","","","html-keyboard-response","174","1171999","0.0-5.0-1.0-1.0-0.0-4.0-0.0-0.0-2.6","null","","null","<p style='font-size: 60px; color: green'>正确!</p>","","","","","","","","","","","","","","","","","","","","","","","","","","","","","","","","","","","","","","","","","","","","","","","",""
"","","","","","html-keyboard-response","175","1173000","0.0-5.0-1.0-1.0-0.0-4.0-0.0-0.0-0.7","null","fixation","null","<p style='font-size: 48px; color: white'>+</p >","","","","","","","","","","","","","","","","","","","","","","","","","","","","","","","","","","","","","","","","","","","","","","","",""
"","","","","","rdk","176","1175060","0.0-5.0-1.0-1.0-0.0-4.0-0.0-0.0-1.7","1574","color_test","k","","true","[""d"",""k""]","k","3000","true","1","100","0","0","0","3","1","-1","2","300","300","[""hsl(0, 50%, 50%)"",""hsl(225, 50%, 50%)""]","[""hsl(225, 50%, 50%)"",""hsl(0, 50%, 50%)""]","0.5","0.6","0","circle","black","3","2","2","16.819148936170212","[11,17,17,17,17,17,17,17,17,17,17,17,16,17,17,17,17,17,16,17,17,17,17,17,17,17,17,17,17,17,17,17,17,16,17,17,17,17,17,17,16,17,16,17,17,17,17,17,17,17,17,17,17,17,16,17,17,17,17,17,17,17,17,17,16,17,17,17,17,17,17,17,17,17,16,17,17,17,16,17,16,17,17,17,17,17,17,16,17,17,17,17,17,17]","94","960","482","false","20","20","black","1","false","1","1","1920","964","k","staircase_color","","","","",""
"","","","","","html-keyboard-response","177","1176067","0.0-5.0-1.0-1.0-0.0-4.0-0.0-0.0-2.7","null","","null","<p style='font-size: 60px; color: green'>正确!</p>","","","","","","","","","","","","","","","","","","","","","","","","","","","","","","","","","","","","","","","","","","","","","","","",""
"","","","","","html-keyboard-response","178","1177066","0.0-5.0-1.0-1.0-0.0-4.0-0.0-0.0-0.8","null","fixation","null","<p style='font-size: 48px; color: white'>+</p >","","","","","","","","","","","","","","","","","","","","","","","","","","","","","","","","","","","","","","","","","","","","","","","",""
"","","","","","rdk","179","1178419","0.0-5.0-1.0-1.0-0.0-4.0-0.0-0.0-1.8","867","color_test","k","","true","[""d"",""k""]","k","3000","true","1","100","0","0","0","3","1","-1","2","300","300","[""hsl(0, 50%, 50%)"",""hsl(225, 50%, 50%)""]","[""hsl(225, 50%, 50%)"",""hsl(0, 50%, 50%)""]","0.5","0.6","0","circle","black","3","2","2","16.73076923076923","[9,18,17,16,17,17,17,17,17,17,17,17,17,17,17,17,17,17,17,17,17,17,17,17,17,17,17,17,17,17,16,17,17,17,17,17,17,17,17,16,17,15,17,16,17,17,17,17,17,17,16,17]","52","960","482","false","20","20","black","1","false","1","1","1920","964","k","staircase_color","","","","",""
"","","","","","html-keyboard-response","180","1179417","0.0-5.0-1.0-1.0-0.0-4.0-0.0-0.0-2.8","null","","null","<p style='font-size: 60px; color: green'>正确!</p>","","","","","","","","","","","","","","","","","","","","","","","","","","","","","","","","","","","","","","","","","","","","","","","",""
"","","","","","html-keyboard-response","181","1180416","0.0-5.0-1.0-1.0-0.0-4.0-0.0-0.0-0.9","null","fixation","null","<p style='font-size: 48px; color: white'>+</p >","","","","","","","","","","","","","","","","","","","","","","","","","","","","","","","","","","","","","","","","","","","","","","","",""
"","","","","","rdk","182","1181635","0.0-5.0-1.0-1.0-0.0-4.0-0.0-0.0-1.9","726","color_test","d","","true","[""d"",""k""]","d","3000","true","1","100","0","0","0","3","1","-1","2","300","300","[""hsl(0, 50%, 50%)"",""hsl(225, 50%, 50%)""]","[""hsl(0, 50%, 50%)"",""hsl(225, 50%, 50%)""]","0.5","0.6","0","circle","black","3","2","2","16.5","[3,17,17,17,17,17,16,17,17,17,17,17,17,16,17,17,17,17,17,17,17,17,16,17,17,16,17,17,17,17,17,17,17,16,17,16,17,17,15,17,17,17,17,17]","44","960","482","false","20","20","black","1","false","1","1","1920","964","d","staircase_color","","","","",""
"","","","","","html-keyboard-response","183","1182633","0.0-5.0-1.0-1.0-0.0-4.0-0.0-0.0-2.9","null","","null","<p style='font-size: 60px; color: green'>正确!</p>","","","","","","","","","","","","","","","","","","","","","","","","","","","","","","","","","","","","","","","","","","","","","","","",""
"","","","","","html-keyboard-response","184","1183633","0.0-5.0-1.0-1.0-0.0-4.0-0.0-0.0-0.10","null","fixation","null","<p style='font-size: 48px; color: white'>+</p >","","","","","","","","","","","","","","","","","","","","","","","","","","","","","","","","","","","","","","","","","","","","","","","",""
"","","","","","rdk","185","1185492","0.0-5.0-1.0-1.0-0.0-4.0-0.0-0.0-1.10","1372","color_test","d","","true","[""d"",""k""]","d","3000","true","1","100","0","0","0","3","1","-1","2","300","300","[""hsl(0, 50%, 50%)"",""hsl(225, 50%, 50%)""]","[""hsl(0, 50%, 50%)"",""hsl(225, 50%, 50%)""]","0.5","0.6","0","circle","black","3","2","2","16.890243902439025","[10,17,17,17,17,17,17,17,17,16,17,17,17,17,17,17,17,17,17,17,17,17,17,17,17,17,17,17,17,17,17,17,17,17,16,17,17,17,17,17,17,17,17,17,17,17,17,17,17,17,17,17,17,17,17,17,17,17,17,17,17,17,17,17,17,17,17,17,17,17,17,17,17,17,17,17,17,17,17,17,17,17]","82","960","482","false","20","20","black","1","false","1","1","1920","964","d","staircase_color","","","","",""
"","","","","","html-keyboard-response","186","1186500","0.0-5.0-1.0-1.0-0.0-4.0-0.0-0.0-2.10","null","","null","<p style='font-size: 60px; color: green'>正确!</p>","","","","","","","","","","","","","","","","","","","","","","","","","","","","","","","","","","","","","","","","","","","","","","","",""
"","","","","","html-keyboard-response","187","1187500","0.0-5.0-1.0-1.0-0.0-4.0-0.0-0.0-0.11","null","fixation","null","<p style='font-size: 48px; color: white'>+</p >","","","","","","","","","","","","","","","","","","","","","","","","","","","","","","","","","","","","","","","","","","","","","","","",""
"","","","","","rdk","188","1189412","0.0-5.0-1.0-1.0-0.0-4.0-0.0-0.0-1.11","1426","color_test","k","","true","[""d"",""k""]","k","3000","true","1","100","0","0","0","3","1","-1","2","300","300","[""hsl(0, 50%, 50%)"",""hsl(225, 50%, 50%)""]","[""hsl(225, 50%, 50%)"",""hsl(0, 50%, 50%)""]","0.5","0.6","0","circle","black","3","2","2","16.858823529411765","[11,17,17,16,16,17,17,17,17,17,17,17,17,17,17,17,17,17,17,17,17,17,17,17,17,17,17,17,17,17,17,17,17,17,17,17,16,17,17,16,17,17,17,17,17,17,17,17,17,16,17,17,17,17,17,17,17,17,17,17,17,17,17,17,17,17,17,17,17,17,17,16,17,17,17,17,17,17,17,17,17,17,17,17,17]","85","960","482","false","20","20","black","1","false","1","1","1920","964","k","staircase_color","","","","",""
"","","","","","html-keyboard-response","189","1190417","0.0-5.0-1.0-1.0-0.0-4.0-0.0-0.0-2.11","null","","null","<p style='font-size: 60px; color: green'>正确!</p>","","","","","","","","","","","","","","","","","","","","","","","","","","","","","","","","","","","","","","","","","","","","","","","",""
"","","","","","html-keyboard-response","190","1192915","0.0-5.0-1.0-1.0-0.0-4.0-0.0-1.0","null","","null","<p style='font-size: 35px; color: white'>您的正确率为： 100% 。平均反应时为：1257毫秒。</p>","","","","","","","","","","","","","","","","","","","","","","","","","","","","","","","","","","","","","","","","","","","","","","","",""
"","","","","","html-keyboard-response","191","1193916","0.0-5.0-1.0-1.0-0.0-5.0-0.0-0.0-0.0","null","fixation","null","<p style='font-size: 48px; color: white'>+</p >","","","","","","","","","","","","","","","","","","","","","","","","","","","","","","","","","","","","","","","","","","","","","","","",""
"","","","","","rdk","192","1196084","0.0-5.0-1.0-1.0-0.0-5.0-0.0-0.0-1.0","1682","color_test","k","","true","[""d"",""k""]","k","3000","true","1","100","0","0","0","3","1","-1","2","300","300","[""hsl(0, 50%, 50%)"",""hsl(225, 50%, 50%)""]","[""hsl(225, 50%, 50%)"",""hsl(0, 50%, 50%)""]","0.5","0.52","0","circle","black","3","2","2","16.81188118811881","[9,17,17,17,17,17,17,16,17,17,17,17,17,17,17,17,17,17,17,17,17,16,17,17,17,16,17,17,17,17,16,17,17,17,17,17,17,15,17,17,17,16,17,17,17,17,17,17,18,17,17,17,17,16,17,17,17,17,17,17,17,17,17,17,17,17,17,17,17,17,17,17,17,17,17,17,17,17,17,17,17,17,17,17,17,17,17,17,17,17,16,16,16,16,17,17,17,17,17,17,17]","101","960","482","false","20","20","black","1","false","1","1","1920","964","k","staircase_color","","","","",""
"","","","","","html-keyboard-response","193","1197083","0.0-5.0-1.0-1.0-0.0-5.0-0.0-0.0-2.0","null","","null","<p style='font-size: 60px; color: green'>正确!</p>","","","","","","","","","","","","","","","","","","","","","","","","","","","","","","","","","","","","","","","","","","","","","","","",""
"","","","","","html-keyboard-response","194","1198083","0.0-5.0-1.0-1.0-0.0-5.0-0.0-0.0-0.1","null","fixation","null","<p style='font-size: 48px; color: white'>+</p >","","","","","","","","","","","","","","","","","","","","","","","","","","","","","","","","","","","","","","","","","","","","","","","",""
"","","","","","rdk","195","1199556","0.0-5.0-1.0-1.0-0.0-5.0-0.0-0.0-1.1","987","color_test","d","","true","[""d"",""k""]","d","3000","true","1","100","0","0","0","3","1","-1","2","300","300","[""hsl(0, 50%, 50%)"",""hsl(225, 50%, 50%)""]","[""hsl(0, 50%, 50%)"",""hsl(225, 50%, 50%)""]","0.5","0.52","0","circle","black","3","2","2","16.76271186440678","[10,16,18,16,17,16,17,16,17,17,17,17,17,17,17,17,17,17,17,17,17,17,17,17,17,17,17,17,17,17,17,17,17,17,17,17,17,16,17,17,17,17,17,16,17,16,17,16,17,17,17,17,17,17,17,17,17,17,17]","59","960","482","false","20","20","black","1","false","1","1","1920","964","d","staircase_color","","","","",""
"","","","","","html-keyboard-response","196","1200550","0.0-5.0-1.0-1.0-0.0-5.0-0.0-0.0-2.1","null","","null","<p style='font-size: 60px; color: green'>正确!</p>","","","","","","","","","","","","","","","","","","","","","","","","","","","","","","","","","","","","","","","","","","","","","","","",""
"","","","","","html-keyboard-response","197","1201550","0.0-5.0-1.0-1.0-0.0-5.0-0.0-0.0-0.2","null","fixation","null","<p style='font-size: 48px; color: white'>+</p >","","","","","","","","","","","","","","","","","","","","","","","","","","","","","","","","","","","","","","","","","","","","","","","",""
"","","","","","rdk","198","1203851","0.0-5.0-1.0-1.0-0.0-5.0-0.0-0.0-1.2","1816","color_test","k","","true","[""d"",""k""]","k","3000","true","1","100","0","0","0","3","1","-1","2","300","300","[""hsl(0, 50%, 50%)"",""hsl(225, 50%, 50%)""]","[""hsl(225, 50%, 50%)"",""hsl(0, 50%, 50%)""]","0.5","0.52","0","circle","black","3","2","2","16.908256880733944","[11,17,17,17,17,17,16,17,17,17,17,17,17,17,17,17,17,17,17,17,17,17,17,17,17,17,17,17,17,17,16,17,17,17,17,17,17,17,17,17,17,17,17,17,17,17,17,17,16,17,17,16,17,17,17,17,17,17,17,17,17,17,17,17,17,17,17,17,17,17,17,17,17,17,17,17,17,17,17,17,17,17,17,17,17,17,17,17,17,17,17,17,17,17,17,17,17,17,17,17,17,17,17,17,17,17,17,17,17]","109","960","482","false","20","20","black","1","false","1","1","1920","964","k","staircase_color","","","","",""
"","","","","","html-keyboard-response","199","1204849","0.0-5.0-1.0-1.0-0.0-5.0-0.0-0.0-2.2","null","","null","<p style='font-size: 60px; color: green'>正确!</p>","","","","","","","","","","","","","","","","","","","","","","","","","","","","","","","","","","","","","","","","","","","","","","","",""
"","","","","","html-keyboard-response","200","1205850","0.0-5.0-1.0-1.0-0.0-5.0-0.0-0.0-0.3","null","fixation","null","<p style='font-size: 48px; color: white'>+</p >","","","","","","","","","","","","","","","","","","","","","","","","","","","","","","","","","","","","","","","","","","","","","","","",""
"","","","","","rdk","201","1208044","0.0-5.0-1.0-1.0-0.0-5.0-0.0-0.0-1.3","1708","color_test","k","","false","[""d"",""k""]","d","3000","true","1","100","0","0","0","3","1","-1","2","300","300","[""hsl(0, 50%, 50%)"",""hsl(225, 50%, 50%)""]","[""hsl(0, 50%, 50%)"",""hsl(225, 50%, 50%)""]","0.5","0.52","0","circle","black","3","2","2","16.88235294117647","[11,17,17,17,17,17,17,17,17,17,17,17,17,17,17,17,17,17,17,17,17,17,17,17,17,17,17,17,17,17,17,17,17,17,17,17,17,17,16,16,17,17,17,17,17,17,17,17,17,17,17,17,17,17,17,17,17,16,17,16,17,16,17,17,17,17,17,17,17,17,17,17,17,17,17,17,17,17,17,17,17,17,17,17,16,17,17,17,17,17,17,17,17,17,17,17,17,17,17,17,17,17]","102","960","482","false","20","20","black","1","false","1","1","1920","964","d","staircase_color","","","","",""
"","","","","","html-keyboard-response","202","1209049","0.0-5.0-1.0-1.0-0.0-5.0-0.0-0.0-2.3","null","","null","<p style='font-size: 60px; color: red'>错误!</p>","","","","","","","","","","","","","","","","","","","","","","","","","","","","","","","","","","","","","","","","","","","","","","","",""
"","","","","","html-keyboard-response","203","1210050","0.0-5.0-1.0-1.0-0.0-5.0-0.0-0.0-0.4","null","fixation","null","<p style='font-size: 48px; color: white'>+</p >","","","","","","","","","","","","","","","","","","","","","","","","","","","","","","","","","","","","","","","","","","","","","","","",""
"","","","","","rdk","204","1212460","0.0-5.0-1.0-1.0-0.0-5.0-0.0-0.0-1.4","1924","color_test","d","","true","[""d"",""k""]","d","3000","true","1","100","0","0","0","3","1","-1","2","300","300","[""hsl(0, 50%, 50%)"",""hsl(225, 50%, 50%)""]","[""hsl(0, 50%, 50%)"",""hsl(225, 50%, 50%)""]","0.5","0.52","0","circle","black","3","2","2","16.843478260869563","[10,17,17,17,17,17,17,17,17,17,17,17,17,17,17,17,17,17,16,17,17,17,17,17,17,16,17,17,17,17,17,17,17,17,17,17,17,17,17,17,17,17,17,17,17,17,17,17,16,17,17,17,17,16,17,17,16,17,17,17,17,17,17,17,17,17,17,17,17,17,16,17,16,17,17,17,16,18,17,16,17,17,17,17,17,17,17,17,16,17,17,17,16,17,17,17,17,17,17,17,17,17,17,17,17,17,17,17,17,17,17,17,16,17,17]","115","960","482","false","20","20","black","1","false","1","1","1920","964","d","staircase_color","","","","",""
"","","","","","html-keyboard-response","205","1213466","0.0-5.0-1.0-1.0-0.0-5.0-0.0-0.0-2.4","null","","null","<p style='font-size: 60px; color: green'>正确!</p>","","","","","","","","","","","","","","","","","","","","","","","","","","","","","","","","","","","","","","","","","","","","","","","",""
"","","","","","html-keyboard-response","206","1214466","0.0-5.0-1.0-1.0-0.0-5.0-0.0-0.0-0.5","null","fixation","null","<p style='font-size: 48px; color: white'>+</p >","","","","","","","","","","","","","","","","","","","","","","","","","","","","","","","","","","","","","","","","","","","","","","","",""
"","","","","","rdk","207","1216323","0.0-5.0-1.0-1.0-0.0-5.0-0.0-0.0-1.5","1370","color_test","k","","true","[""d"",""k""]","k","3000","true","1","100","0","0","0","3","1","-1","2","300","300","[""hsl(0, 50%, 50%)"",""hsl(225, 50%, 50%)""]","[""hsl(225, 50%, 50%)"",""hsl(0, 50%, 50%)""]","0.5","0.52","0","circle","black","3","2","2","16.829268292682926","[10,17,16,17,17,17,17,16,17,16,17,17,17,17,16,17,17,17,17,17,17,17,17,17,17,17,17,17,17,17,17,17,17,17,17,17,17,17,17,17,17,17,17,17,17,17,17,17,17,17,17,17,17,17,17,17,17,17,15,17,18,16,17,17,17,17,17,17,17,17,17,17,17,17,17,17,16,17,17,17,17,17]","82","960","482","false","20","20","black","1","false","1","1","1920","964","k","staircase_color","","","","",""
"","","","","","html-keyboard-response","208","1217317","0.0-5.0-1.0-1.0-0.0-5.0-0.0-0.0-2.5","null","","null","<p style='font-size: 60px; color: green'>正确!</p>","","","","","","","","","","","","","","","","","","","","","","","","","","","","","","","","","","","","","","","","","","","","","","","",""
"","","","","","html-keyboard-response","209","1218319","0.0-5.0-1.0-1.0-0.0-5.0-0.0-0.0-0.6","null","fixation","null","<p style='font-size: 48px; color: white'>+</p >","","","","","","","","","","","","","","","","","","","","","","","","","","","","","","","","","","","","","","","","","","","","","","","",""
"","","","","","rdk","210","1221508","0.0-5.0-1.0-1.0-0.0-5.0-0.0-0.0-1.6","2705","color_test","k","","false","[""d"",""k""]","d","3000","true","1","100","0","0","0","3","1","-1","2","300","300","[""hsl(0, 50%, 50%)"",""hsl(225, 50%, 50%)""]","[""hsl(0, 50%, 50%)"",""hsl(225, 50%, 50%)""]","0.5","0.52","0","circle","black","3","2","2","16.90740740740741","[11,17,17,16,17,17,17,16,17,17,17,17,17,17,17,17,17,17,17,17,17,17,17,17,17,17,17,17,17,17,17,17,17,17,17,17,17,17,17,17,17,17,17,17,17,17,17,17,17,17,17,17,17,17,17,17,17,17,16,17,17,17,17,17,17,17,16,17,17,17,17,17,16,17,17,16,17,17,17,17,17,16,17,16,17,17,17,17,17,17,17,17,17,17,17,17,17,17,17,17,17,17,17,17,17,17,17,17,17,17,17,17,17,17,17,17,17,17,17,17,17,17,17,17,17,17,17,17,17,17,17,17,17,17,17,17,17,17,17,17,17,17,17,17,17,17,17,17,17,17,17,17,17,17,17,17,17,16,17,17,17,17]","162","960","482","false","20","20","black","1","false","1","1","1920","964","d","staircase_color","","","","",""
"","","","","","html-keyboard-response","211","1222517","0.0-5.0-1.0-1.0-0.0-5.0-0.0-0.0-2.6","null","","null","<p style='font-size: 60px; color: red'>错误!</p>","","","","","","","","","","","","","","","","","","","","","","","","","","","","","","","","","","","","","","","","","","","","","","","",""
"","","","","","html-keyboard-response","212","1223517","0.0-5.0-1.0-1.0-0.0-5.0-0.0-0.0-0.7","null","fixation","null","<p style='font-size: 48px; color: white'>+</p >","","","","","","","","","","","","","","","","","","","","","","","","","","","","","","","","","","","","","","","","","","","","","","","",""
"","","","","","rdk","213","1225284","0.0-5.0-1.0-1.0-0.0-5.0-0.0-0.0-1.7","1281","color_test","k","","true","[""d"",""k""]","k","3000","true","1","100","0","0","0","3","1","-1","2","300","300","[""hsl(0, 50%, 50%)"",""hsl(225, 50%, 50%)""]","[""hsl(225, 50%, 50%)"",""hsl(0, 50%, 50%)""]","0.5","0.52","0","circle","black","3","2","2","16.90909090909091","[10,17,17,17,17,17,17,17,17,17,17,17,17,17,17,17,17,17,17,17,17,17,17,17,17,17,17,17,17,17,17,17,17,17,17,17,17,17,17,17,17,17,17,17,17,17,17,17,17,17,17,17,17,17,17,17,17,17,17,17,17,17,17,17,17,17,17,17,17,17,17,17,17,17,17,17,17]","77","960","482","false","20","20","black","1","false","1","1","1920","964","k","staircase_color","","","","",""
"","","","","","html-keyboard-response","214","1226283","0.0-5.0-1.0-1.0-0.0-5.0-0.0-0.0-2.7","null","","null","<p style='font-size: 60px; color: green'>正确!</p>","","","","","","","","","","","","","","","","","","","","","","","","","","","","","","","","","","","","","","","","","","","","","","","",""
"","","","","","html-keyboard-response","215","1227283","0.0-5.0-1.0-1.0-0.0-5.0-0.0-0.0-0.8","null","fixation","null","<p style='font-size: 48px; color: white'>+</p >","","","","","","","","","","","","","","","","","","","","","","","","","","","","","","","","","","","","","","","","","","","","","","","",""
"","","","","","rdk","216","1229580","0.0-5.0-1.0-1.0-0.0-5.0-0.0-0.0-1.8","1811","color_test","k","","true","[""d"",""k""]","k","3000","true","1","100","0","0","0","3","1","-1","2","300","300","[""hsl(0, 50%, 50%)"",""hsl(225, 50%, 50%)""]","[""hsl(225, 50%, 50%)"",""hsl(0, 50%, 50%)""]","0.5","0.52","0","circle","black","3","2","2","16.75","[9,18,15,17,16,17,18,16,17,16,17,17,17,17,17,17,17,17,17,17,17,17,17,17,16,17,17,17,16,17,17,17,17,17,17,17,17,16,17,16,17,16,17,17,17,17,17,17,17,17,17,17,16,17,17,16,17,17,17,17,17,17,17,17,17,17,17,16,17,17,16,17,16,17,17,17,17,17,17,17,16,17,17,17,17,15,17,17,17,17,17,17,17,16,17,16,17,17,17,17,17,16,17,17,17,17,17,17]","108","960","482","false","20","20","black","1","false","1","1","1920","964","k","staircase_color","","","","",""
"","","","","","html-keyboard-response","217","1230584","0.0-5.0-1.0-1.0-0.0-5.0-0.0-0.0-2.8","null","","null","<p style='font-size: 60px; color: green'>正确!</p>","","","","","","","","","","","","","","","","","","","","","","","","","","","","","","","","","","","","","","","","","","","","","","","",""
"","","","","","html-keyboard-response","218","1231583","0.0-5.0-1.0-1.0-0.0-5.0-0.0-0.0-0.9","null","fixation","null","<p style='font-size: 48px; color: white'>+</p >","","","","","","","","","","","","","","","","","","","","","","","","","","","","","","","","","","","","","","","","","","","","","","","",""
"","","","","","rdk","219","1233628","0.0-5.0-1.0-1.0-0.0-5.0-0.0-0.0-1.9","1558","color_test","d","","true","[""d"",""k""]","d","3000","true","1","100","0","0","0","3","1","-1","2","300","300","[""hsl(0, 50%, 50%)"",""hsl(225, 50%, 50%)""]","[""hsl(0, 50%, 50%)"",""hsl(225, 50%, 50%)""]","0.5","0.52","0","circle","black","3","2","2","16.903225806451612","[9,17,17,17,17,17,17,17,17,17,17,17,17,17,17,17,17,17,17,17,17,17,17,17,17,17,17,17,17,17,17,17,17,16,17,17,17,17,17,17,17,17,17,17,17,17,17,17,17,17,17,17,17,17,17,17,17,17,17,17,17,17,17,17,17,17,17,17,17,17,17,17,17,17,17,17,17,17,17,17,17,17,17,17,17,17,17,17,17,17,17,17,17]","93","960","482","false","20","20","black","1","false","1","1","1920","964","d","staircase_color","","","","",""
"","","","","","html-keyboard-response","220","1234633","0.0-5.0-1.0-1.0-0.0-5.0-0.0-0.0-2.9","null","","null","<p style='font-size: 60px; color: green'>正确!</p>","","","","","","","","","","","","","","","","","","","","","","","","","","","","","","","","","","","","","","","","","","","","","","","",""
"","","","","","html-keyboard-response","221","1235635","0.0-5.0-1.0-1.0-0.0-5.0-0.0-0.0-0.10","null","fixation","null","<p style='font-size: 48px; color: white'>+</p >","","","","","","","","","","","","","","","","","","","","","","","","","","","","","","","","","","","","","","","","","","","","","","","",""
"","","","","","rdk","222","1238612","0.0-5.0-1.0-1.0-0.0-5.0-0.0-0.0-1.10","2493","color_test","k","","true","[""d"",""k""]","k","3000","true","1","100","0","0","0","3","1","-1","2","300","300","[""hsl(0, 50%, 50%)"",""hsl(225, 50%, 50%)""]","[""hsl(225, 50%, 50%)"",""hsl(0, 50%, 50%)""]","0.5","0.52","0","circle","black","3","2","2","16.91275167785235","[11,17,17,17,17,16,16,17,17,16,17,17,16,17,17,17,17,17,17,17,17,17,17,17,17,17,17,17,17,17,16,17,17,17,17,17,17,17,17,17,17,17,17,17,17,17,17,17,17,17,17,17,17,17,17,17,17,17,17,17,17,17,17,17,17,17,17,17,17,17,17,17,17,17,17,17,17,17,17,17,17,17,17,17,17,17,17,17,17,17,17,17,17,17,17,17,17,17,17,17,17,17,17,17,17,17,17,17,17,17,17,17,17,17,17,17,16,17,17,17,17,17,17,17,17,17,17,16,17,17,17,17,17,17,17,17,17,17,17,17,17,17,17,17,17,17,17,17,17]","149","960","482","false","20","20","black","1","false","1","1","1920","964","k","staircase_color","","","","",""
"","","","","","html-keyboard-response","223","1239617","0.0-5.0-1.0-1.0-0.0-5.0-0.0-0.0-2.10","null","","null","<p style='font-size: 60px; color: green'>正确!</p>","","","","","","","","","","","","","","","","","","","","","","","","","","","","","","","","","","","","","","","","","","","","","","","",""
"","","","","","html-keyboard-response","224","1240605","0.0-5.0-1.0-1.0-0.0-5.0-0.0-0.0-0.11","null","fixation","null","<p style='font-size: 48px; color: white'>+</p >","","","","","","","","","","","","","","","","","","","","","","","","","","","","","","","","","","","","","","","","","","","","","","","",""
