"success","timeout","failed_images","failed_audio","failed_video","trial_type","trial_index","time_elapsed","internal_node_id","rt","part","response","stimulus","correct","choices","correct_choice","trial_duration","response_ends_trial","number_of_apertures","number_of_dots","coherent_direction","coherence","opposite_coherence","dot_radius","dot_side_length","dot_life","move_distance","aperture_width","aperture_height","dot_color","dot_color_final","color_change_delay","target_color_proportion","motion_change_delay","dot_shape","background_color","RDK_type","aperture_type","reinsert_type","frame_rate","frame_rate_array","number_of_frames","aperture_center_x","aperture_center_y","fixation_cross","fixation_cross_width","fixation_cross_height","fixation_cross_color","fixation_cross_thickness","border","border_thickness","border_color","canvas_width","canvas_height","correct_response","data_label","task","difficulty","isMatch","association","label"
"true","false","[]","[]","[]","preload","0","8","0.0-0.0","","","","","","","","","","","","","","","","","","","","","","","","","","","","","","","","","","","","","","","","","","","","","","","","","","","",""
"true","","","","","fullscreen","1","117670","0.0-1.0","115708","fullScreen","","","","","","","","","","","","","","","","","","","","","","","","","","","","","","","","","","","","","","","","","","","","","","","","","",""
"","","","","","survey","2","135238","0.0-2.0","16553","survey","{""sex"":""男"",""age"":18,""hands"":""右"",""color_blindness"":""都不是""}","","","","","","","","","","","","","","","","","","","","","","","","","","","","","","","","","","","","","","","","","","","","","","","","",""
"","","","","","survey-text","3","150812","0.0-3.0","14621","color_test","{""Q0"":""BE""}","","","","","","","","","","","","","","","","","","","","","","","","","","","","","","","","","","","","","","","","","","","","","","","","",""
"","","","","","html-keyboard-response","4","156001","0.0-4.0","4247","instruction_beginning"," ","
      <div style=""text-align: left; color: white"">
        <h3 style=""text-align: center; font-size: 30px; margin: 0;"">欢迎参与本实验</h3>
          <p>为充分保障您的权利，请确保您已经知晓并同意《参与实验同意书》以及《数据公开知情同意书》，</p>
          <p>如果您未见过上述内容，请咨询实验员 ，</p>
          <p>如果您选择继续实验，则表示您已经清楚两份知情同意书的内容并同意 。</p>
          <p>在整个实验中，您需要完成两项任务，具体的任务要求会在后面说明 ，</p>
          <p>请按空格键进入实验</p >
      </div>","","","","","","","","","","","","","","","","","","","","","","","","","","","","","","","","","","","","","","","","","","","","","","","",""
"","","","","","html-keyboard-response","5","176845","0.0-5.0-0.0","19905","instruction_getThreshold"," ","
        <div style=""text-align: left; color: white; padding: 10px""> 
          <h3 style=""text-align: center; font-size: 30px; margin: 10px"">欢迎进入实验！</h3>
          <p>在正式开始前，我们将通过一个快速测试为您打造专属的难度水平。<p>
          <p>接下来，屏幕上会呈现一些运动的圆点，其中一定比例的点为 <span style=""color: hsl(0, 50%, 50%)"">红色</span> ，其余为 <span style=""color: hsl(225, 50%, 50%)"">蓝色</span>，</p>
          <p>您需要在3秒内判断 <span style=""font-weight: bold"">散点图的整体颜色（即大多数点的颜色）是红色还是蓝色 </span>：</p >
          <ul>
            <li>整体为 <span style=""color: hsl(0, 50%, 50%)"">红色</span>，请按键盘 <span style=""color: hsl(0, 50%, 50%)"">""D"" 键</span></li>
            <li>整体为 <span style=""color: hsl(225, 50%, 50%)"">蓝色</span>，请按键盘 <span style=""color: hsl(225, 50%, 50%)"">""k"" 键</span> </li>
          </ul>
          <p>如有疑问请向主试咨询，没有则按下空格键开始</p>
        </div>","","","","","","","","","","","","","","","","","","","","","","","","","","","","","","","","","","","","","","","","","","","","","","","",""
"","","","","","html-keyboard-response","6","178283","0.0-5.0-1.0-1.0-0.0-0.0-0.0-0.0-0.0","null","fixation","null","<p style='font-size: 48px; color: white'>+</p >","","","","","","","","","","","","","","","","","","","","","","","","","","","","","","","","","","","","","","","","","","","","","","","",""
"","","","","","rdk","7","182223","0.0-5.0-1.0-1.0-0.0-0.0-0.0-0.0-1.0","2993","color_test","k","","true","[""d"",""k""]","k","3000","true","1","100","0","0","0","3","1","-1","2","300","300","[""hsl(0, 50%, 50%)"",""hsl(225, 50%, 50%)""]","[""hsl(225, 50%, 50%)"",""hsl(0, 50%, 50%)""]","0.5","0.58","0","circle","black","3","2","2","16.769662921348313","[16,32,16,17,17,16,17,17,16,17,18,16,17,17,16,17,16,19,16,15,17,17,18,16,16,19,16,16,19,14,16,16,17,17,17,16,16,18,16,16,17,16,17,17,16,17,17,16,18,16,18,15,17,17,17,17,15,17,18,16,17,18,16,17,16,18,17,16,17,16,17,16,17,17,18,16,15,16,17,16,17,16,18,17,16,17,18,16,17,17,16,18,14,18,16,18,16,19,16,16,17,16,17,17,15,17,17,16,16,18,17,16,16,18,17,17,15,17,16,18,16,18,16,16,17,16,16,16,18,16,19,15,18,16,18,16,18,17,16,16,16,18,16,17,16,19,16,15,18,16,16,19,16,16,17,16,16,17,18,16,17,16,17,17,16,16,16,18,16,19,16,16,17,17,17,17,15,17]","178","960","469","false","20","20","black","1","false","1","1","1920","938","k","staircase_color","","","","",""
"","","","","","html-keyboard-response","8","183664","0.0-5.0-1.0-1.0-0.0-0.0-0.0-0.0-2.0","null","","null","<p style='font-size: 60px; color: green'>正确!</p>","","","","","","","","","","","","","","","","","","","","","","","","","","","","","","","","","","","","","","","","","","","","","","","",""
"","","","","","html-keyboard-response","9","185101","0.0-5.0-1.0-1.0-0.0-0.0-0.0-0.0-0.1","null","fixation","null","<p style='font-size: 48px; color: white'>+</p >","","","","","","","","","","","","","","","","","","","","","","","","","","","","","","","","","","","","","","","","","","","","","","","",""
"","","","","","rdk","10","187164","0.0-5.0-1.0-1.0-0.0-0.0-0.0-0.0-1.1","1124","color_test","k","","true","[""d"",""k""]","k","3000","true","1","100","0","0","0","3","1","-1","2","300","300","[""hsl(0, 50%, 50%)"",""hsl(225, 50%, 50%)""]","[""hsl(225, 50%, 50%)"",""hsl(0, 50%, 50%)""]","0.5","0.58","0","circle","black","3","2","2","16.567164179104477","[6,17,17,17,16,17,18,17,16,16,18,18,17,18,17,14,16,17,18,16,17,17,17,18,14,18,17,19,14,15,17,16,17,16,17,16,18,16,16,18,16,17,18,16,18,16,18,15,17,16,18,18,15,16,17,17,16,17,17,16,17,16,17,17,17,15,18]","67","960","469","false","20","20","black","1","false","1","1","1920","938","k","staircase_color","","","","",""
"","","","","","html-keyboard-response","11","188601","0.0-5.0-1.0-1.0-0.0-0.0-0.0-0.0-2.1","null","","null","<p style='font-size: 60px; color: green'>正确!</p>","","","","","","","","","","","","","","","","","","","","","","","","","","","","","","","","","","","","","","","","","","","","","","","",""
"","","","","","html-keyboard-response","12","190037","0.0-5.0-1.0-1.0-0.0-0.0-0.0-0.0-0.2","null","fixation","null","<p style='font-size: 48px; color: white'>+</p >","","","","","","","","","","","","","","","","","","","","","","","","","","","","","","","","","","","","","","","","","","","","","","","",""
"","","","","","rdk","13","193977","0.0-5.0-1.0-1.0-0.0-0.0-0.0-0.0-1.2","-1","color_test","","","false","[""d"",""k""]","d","3000","true","1","100","0","0","0","3","1","-1","2","300","300","[""hsl(0, 50%, 50%)"",""hsl(225, 50%, 50%)""]","[""hsl(0, 50%, 50%)"",""hsl(225, 50%, 50%)""]","0.5","0.58","0","circle","black","3","2","2","16.622222222222224","[4,16,18,16,18,16,16,17,16,17,17,16,18,16,18,16,18,17,15,18,16,17,18,16,19,17,16,17,16,18,16,18,16,18,15,17,16,17,17,16,16,17,16,18,15,17,17,16,17,17,16,18,15,18,17,17,15,19,15,17,16,18,16,16,17,18,17,15,17,16,17,16,17,17,16,18,15,18,16,16,19,16,15,16,18,16,17,16,17,17,16,17,16,17,16,16,16,19,16,16,16,17,16,17,16,17,16,17,16,17,17,18,15,17,18,16,16,17,19,15,17,16,16,17,18,16,16,18,16,19,15,18,16,18,16,16,17,18,17,15,18,17,16,16,17,17,16,16,18,15,18,17,16,17,18,16,16,17,16,18,15,17,18,16,17,17,16,16,17,18,15,18,15,17,16,17,16,19,15,18]","180","960","469","false","20","20","black","1","false","1","1","1920","938","d","staircase_color","","","","",""
"","","","","","html-keyboard-response","14","195413","0.0-5.0-1.0-1.0-0.0-0.0-0.0-0.0-2.2","null","","null","<p style='font-size: 60px; color: yellow'>太慢!</p>","","","","","","","","","","","","","","","","","","","","","","","","","","","","","","","","","","","","","","","","","","","","","","","",""
"","","","","","html-keyboard-response","15","196850","0.0-5.0-1.0-1.0-0.0-0.0-0.0-0.0-0.3","null","fixation","null","<p style='font-size: 48px; color: white'>+</p >","","","","","","","","","","","","","","","","","","","","","","","","","","","","","","","","","","","","","","","","","","","","","","","",""
"","","","","","rdk","16","198653","0.0-5.0-1.0-1.0-0.0-0.0-0.0-0.0-1.3","865","color_test","d","","true","[""d"",""k""]","d","3000","true","1","100","0","0","0","3","1","-1","2","300","300","[""hsl(0, 50%, 50%)"",""hsl(225, 50%, 50%)""]","[""hsl(0, 50%, 50%)"",""hsl(225, 50%, 50%)""]","0.5","0.58","0","circle","black","3","2","2","16.51923076923077","[10,15,16,17,16,17,17,16,17,16,18,16,18,17,17,17,17,17,16,15,16,17,16,17,16,16,17,17,18,16,17,16,17,17,17,18,16,16,19,16,16,17,16,16,17,17,16,19,15,17,17,16]","52","960","469","false","20","20","black","1","false","1","1","1920","938","d","staircase_color","","","","",""
"","","","","","html-keyboard-response","17","200090","0.0-5.0-1.0-1.0-0.0-0.0-0.0-0.0-2.3","null","","null","<p style='font-size: 60px; color: green'>正确!</p>","","","","","","","","","","","","","","","","","","","","","","","","","","","","","","","","","","","","","","","","","","","","","","","",""
"","","","","","html-keyboard-response","18","201529","0.0-5.0-1.0-1.0-0.0-0.0-0.0-0.0-0.4","null","fixation","null","<p style='font-size: 48px; color: white'>+</p >","","","","","","","","","","","","","","","","","","","","","","","","","","","","","","","","","","","","","","","","","","","","","","","",""
"","","","","","rdk","19","203903","0.0-5.0-1.0-1.0-0.0-0.0-0.0-0.0-1.4","1435","color_test","d","","false","[""d"",""k""]","k","3000","true","1","100","0","0","0","3","1","-1","2","300","300","[""hsl(0, 50%, 50%)"",""hsl(225, 50%, 50%)""]","[""hsl(225, 50%, 50%)"",""hsl(0, 50%, 50%)""]","0.5","0.58","0","circle","black","3","2","2","16.53488372093023","[11,17,17,16,18,16,18,17,17,16,16,16,17,17,16,16,17,16,17,16,18,16,18,16,18,16,17,16,17,16,18,16,16,17,16,17,16,17,17,16,17,17,16,17,16,18,15,17,17,15,17,16,17,16,16,17,16,18,16,16,18,15,17,16,17,16,17,17,17,17,16,18,17,16,16,17,16,17,16,17,16,16,17,16,17,16]","86","960","469","false","20","20","black","1","false","1","1","1920","938","k","staircase_color","","","","",""
"","","","","","html-keyboard-response","20","205340","0.0-5.0-1.0-1.0-0.0-0.0-0.0-0.0-2.4","null","","null","<p style='font-size: 60px; color: red'>错误!</p>","","","","","","","","","","","","","","","","","","","","","","","","","","","","","","","","","","","","","","","","","","","","","","","",""
"","","","","","html-keyboard-response","21","206777","0.0-5.0-1.0-1.0-0.0-0.0-0.0-0.0-0.5","null","fixation","null","<p style='font-size: 48px; color: white'>+</p >","","","","","","","","","","","","","","","","","","","","","","","","","","","","","","","","","","","","","","","","","","","","","","","",""
"","","","","","rdk","22","208989","0.0-5.0-1.0-1.0-0.0-0.0-0.0-0.0-1.5","1274","color_test","d","","true","[""d"",""k""]","d","3000","true","1","100","0","0","0","3","1","-1","2","300","300","[""hsl(0, 50%, 50%)"",""hsl(225, 50%, 50%)""]","[""hsl(0, 50%, 50%)"",""hsl(225, 50%, 50%)""]","0.5","0.58","0","circle","black","3","2","2","16.57894736842105","[15,16,17,18,16,16,17,16,17,16,18,16,16,18,17,16,17,16,16,17,16,17,16,18,16,17,16,18,15,17,16,17,16,17,16,17,16,17,17,16,17,18,15,17,17,17,15,18,17,16,16,17,18,16,17,16,18,16,15,17,16,17,18,15,17,19,16,16,16,17,16,16,17,17,16,16]","76","960","469","false","20","20","black","1","false","1","1","1920","938","d","staircase_color","","","","",""
"","","","","","html-keyboard-response","23","210426","0.0-5.0-1.0-1.0-0.0-0.0-0.0-0.0-2.5","null","","null","<p style='font-size: 60px; color: green'>正确!</p>","","","","","","","","","","","","","","","","","","","","","","","","","","","","","","","","","","","","","","","","","","","","","","","",""
"","","","","","html-keyboard-response","24","211878","0.0-5.0-1.0-1.0-0.0-0.0-0.0-0.0-0.6","null","fixation","null","<p style='font-size: 48px; color: white'>+</p >","","","","","","","","","","","","","","","","","","","","","","","","","","","","","","","","","","","","","","","","","","","","","","","",""
"","","","","","rdk","25","214686","0.0-5.0-1.0-1.0-0.0-0.0-0.0-0.0-1.6","1871","color_test","d","","false","[""d"",""k""]","k","3000","true","1","100","0","0","0","3","1","-1","2","300","300","[""hsl(0, 50%, 50%)"",""hsl(225, 50%, 50%)""]","[""hsl(225, 50%, 50%)"",""hsl(0, 50%, 50%)""]","0.5","0.58","0","circle","black","3","2","2","16.589285714285715","[14,17,18,17,16,17,18,15,16,18,15,17,16,18,16,18,15,17,17,16,17,16,17,17,17,15,17,17,15,17,16,17,16,18,16,17,16,16,18,16,17,16,17,16,17,16,18,16,16,17,17,16,17,16,18,16,17,16,17,16,18,16,17,16,18,16,17,16,17,16,17,16,17,16,18,16,17,16,17,16,17,16,18,16,15,17,16,17,18,16,18,15,17,16,17,16,18,15,17,16,18,16,16,17,16,16,17,17,17,16,17,17]","112","960","469","false","20","20","black","1","false","1","1","1920","938","k","staircase_color","","","","",""
"","","","","","html-keyboard-response","26","216126","0.0-5.0-1.0-1.0-0.0-0.0-0.0-0.0-2.6","null","","null","<p style='font-size: 60px; color: red'>错误!</p>","","","","","","","","","","","","","","","","","","","","","","","","","","","","","","","","","","","","","","","","","","","","","","","",""
"","","","","","html-keyboard-response","27","217562","0.0-5.0-1.0-1.0-0.0-0.0-0.0-0.0-0.7","null","fixation","null","<p style='font-size: 48px; color: white'>+</p >","","","","","","","","","","","","","","","","","","","","","","","","","","","","","","","","","","","","","","","","","","","","","","","",""
"","","","","","rdk","28","220796","0.0-5.0-1.0-1.0-0.0-0.0-0.0-0.0-1.7","2297","color_test","d","","true","[""d"",""k""]","d","3000","true","1","100","0","0","0","3","1","-1","2","300","300","[""hsl(0, 50%, 50%)"",""hsl(225, 50%, 50%)""]","[""hsl(0, 50%, 50%)"",""hsl(225, 50%, 50%)""]","0.5","0.58","0","circle","black","3","2","2","16.664233576642335","[16,16,17,16,17,15,18,17,16,16,18,17,16,17,16,17,17,16,16,18,16,16,16,17,16,17,17,18,17,15,17,16,15,17,16,29,6,16,16,16,17,17,17,16,17,18,16,16,17,18,16,17,16,16,18,16,18,16,19,15,16,18,16,17,16,17,16,19,15,18,18,14,16,18,16,16,18,16,18,16,18,16,17,16,17,18,16,17,16,17,16,17,17,16,17,18,15,16,17,18,15,17,17,16,17,18,16,17,16,18,16,17,16,17,16,19,16,16,19,16,16,16,17,16,17,16,17,16,18,16,17,16,18,16,17,17,16]","137","960","469","false","20","20","black","1","false","1","1","1920","938","d","staircase_color","","","","",""
"","","","","","html-keyboard-response","29","222233","0.0-5.0-1.0-1.0-0.0-0.0-0.0-0.0-2.7","null","","null","<p style='font-size: 60px; color: green'>正确!</p>","","","","","","","","","","","","","","","","","","","","","","","","","","","","","","","","","","","","","","","","","","","","","","","",""
"","","","","","html-keyboard-response","30","223671","0.0-5.0-1.0-1.0-0.0-0.0-0.0-0.0-0.8","null","fixation","null","<p style='font-size: 48px; color: white'>+</p >","","","","","","","","","","","","","","","","","","","","","","","","","","","","","","","","","","","","","","","","","","","","","","","",""
"","","","","","rdk","31","225388","0.0-5.0-1.0-1.0-0.0-0.0-0.0-0.0-1.8","779","color_test","k","","true","[""d"",""k""]","k","3000","true","1","100","0","0","0","3","1","-1","2","300","300","[""hsl(0, 50%, 50%)"",""hsl(225, 50%, 50%)""]","[""hsl(225, 50%, 50%)"",""hsl(0, 50%, 50%)""]","0.5","0.58","0","circle","black","3","2","2","16.652173913043477","[19,18,16,17,17,18,16,18,16,16,16,17,16,17,16,17,16,17,16,17,16,18,15,17,16,17,16,17,18,16,17,15,18,16,17,17,17,16,16,18,16,16,17,15,18,15]","46","960","469","false","20","20","black","1","false","1","1","1920","938","k","staircase_color","","","","",""
"","","","","","html-keyboard-response","32","226826","0.0-5.0-1.0-1.0-0.0-0.0-0.0-0.0-2.8","null","","null","<p style='font-size: 60px; color: green'>正确!</p>","","","","","","","","","","","","","","","","","","","","","","","","","","","","","","","","","","","","","","","","","","","","","","","",""
"","","","","","html-keyboard-response","33","228262","0.0-5.0-1.0-1.0-0.0-0.0-0.0-0.0-0.9","null","fixation","null","<p style='font-size: 48px; color: white'>+</p >","","","","","","","","","","","","","","","","","","","","","","","","","","","","","","","","","","","","","","","","","","","","","","","",""
"","","","","","rdk","34","230686","0.0-5.0-1.0-1.0-0.0-0.0-0.0-0.0-1.9","1487","color_test","d","","true","[""d"",""k""]","d","3000","true","1","100","0","0","0","3","1","-1","2","300","300","[""hsl(0, 50%, 50%)"",""hsl(225, 50%, 50%)""]","[""hsl(0, 50%, 50%)"",""hsl(225, 50%, 50%)""]","0.5","0.58","0","circle","black","3","2","2","16.573033707865168","[13,18,16,17,17,17,16,17,16,18,16,16,17,16,18,15,17,17,16,16,17,16,18,15,17,16,18,16,17,16,17,17,15,17,17,16,16,17,17,16,16,18,16,16,17,17,17,15,17,16,17,16,18,16,16,17,17,16,17,16,18,16,17,17,17,15,17,18,16,16,17,16,18,17,15,18,15,17,16,15,18,16,18,16,16,18,16,17,18]","89","960","469","false","20","20","black","1","false","1","1","1920","938","d","staircase_color","","","","",""
"","","","","","html-keyboard-response","35","232123","0.0-5.0-1.0-1.0-0.0-0.0-0.0-0.0-2.9","null","","null","<p style='font-size: 60px; color: green'>正确!</p>","","","","","","","","","","","","","","","","","","","","","","","","","","","","","","","","","","","","","","","","","","","","","","","",""
"","","","","","html-keyboard-response","36","233560","0.0-5.0-1.0-1.0-0.0-0.0-0.0-0.0-0.10","null","fixation","null","<p style='font-size: 48px; color: white'>+</p >","","","","","","","","","","","","","","","","","","","","","","","","","","","","","","","","","","","","","","","","","","","","","","","",""
"","","","","","rdk","37","235452","0.0-5.0-1.0-1.0-0.0-0.0-0.0-0.0-1.10","954","color_test","k","","true","[""d"",""k""]","k","3000","true","1","100","0","0","0","3","1","-1","2","300","300","[""hsl(0, 50%, 50%)"",""hsl(225, 50%, 50%)""]","[""hsl(225, 50%, 50%)"",""hsl(0, 50%, 50%)""]","0.5","0.58","0","circle","black","3","2","2","16.666666666666668","[15,17,16,18,16,17,17,17,16,17,15,17,17,18,17,16,17,16,17,16,17,16,19,16,18,15,18,16,16,16,17,16,17,18,17,16,16,17,18,16,16,18,16,17,16,17,16,17,17,16,17,16,19,16,16,17,16]","57","960","469","false","20","20","black","1","false","1","1","1920","938","k","staircase_color","","","","",""
"","","","","","html-keyboard-response","38","236889","0.0-5.0-1.0-1.0-0.0-0.0-0.0-0.0-2.10","null","","null","<p style='font-size: 60px; color: green'>正确!</p>","","","","","","","","","","","","","","","","","","","","","","","","","","","","","","","","","","","","","","","","","","","","","","","",""
"","","","","","html-keyboard-response","39","238325","0.0-5.0-1.0-1.0-0.0-0.0-0.0-0.0-0.11","null","fixation","null","<p style='font-size: 48px; color: white'>+</p >","","","","","","","","","","","","","","","","","","","","","","","","","","","","","","","","","","","","","","","","","","","","","","","",""
"","","","","","rdk","40","240286","0.0-5.0-1.0-1.0-0.0-0.0-0.0-0.0-1.11","1022","color_test","d","","true","[""d"",""k""]","d","3000","true","1","100","0","0","0","3","1","-1","2","300","300","[""hsl(0, 50%, 50%)"",""hsl(225, 50%, 50%)""]","[""hsl(0, 50%, 50%)"",""hsl(225, 50%, 50%)""]","0.5","0.58","0","circle","black","3","2","2","16.639344262295083","[16,16,16,17,17,19,15,16,18,16,18,16,18,16,17,17,16,16,16,17,16,18,15,17,18,16,16,18,16,16,18,15,17,16,17,16,16,17,16,18,16,17,16,17,16,18,15,17,16,17,16,17,16,18,16,18,17,16,17,16,18]","61","960","469","false","20","20","black","1","false","1","1","1920","938","d","staircase_color","","","","",""
"","","","","","html-keyboard-response","41","241722","0.0-5.0-1.0-1.0-0.0-0.0-0.0-0.0-2.11","null","","null","<p style='font-size: 60px; color: green'>正确!</p>","","","","","","","","","","","","","","","","","","","","","","","","","","","","","","","","","","","","","","","","","","","","","","","",""
"","","","","","html-keyboard-response","42","244662","0.0-5.0-1.0-1.0-0.0-0.0-0.0-1.0","null","","null","<p style='font-size: 35px; color: white'>您的正确率为： 75% 。平均反应时为：1342毫秒。</p>","","","","","","","","","","","","","","","","","","","","","","","","","","","","","","","","","","","","","","","","","","","","","","","",""
"","","","","","html-keyboard-response","43","246098","0.0-5.0-1.0-1.0-0.0-1.0-0.0-0.0-0.0","null","fixation","null","<p style='font-size: 48px; color: white'>+</p >","","","","","","","","","","","","","","","","","","","","","","","","","","","","","","","","","","","","","","","","","","","","","","","",""
"","","","","","rdk","44","248876","0.0-5.0-1.0-1.0-0.0-1.0-0.0-0.0-1.0","1840","color_test","d","","true","[""d"",""k""]","d","3000","true","1","100","0","0","0","3","1","-1","2","300","300","[""hsl(0, 50%, 50%)"",""hsl(225, 50%, 50%)""]","[""hsl(0, 50%, 50%)"",""hsl(225, 50%, 50%)""]","0.5","0.56","0","circle","black","3","2","2","16.681818181818183","[10,16,17,17,18,17,16,18,16,18,16,16,17,18,16,16,18,16,17,16,17,17,16,19,15,17,17,16,18,16,17,16,18,16,16,17,18,15,17,17,16,17,16,17,17,16,17,16,17,17,16,17,18,16,17,16,17,17,16,18,15,17,18,15,18,16,18,16,18,15,17,18,16,16,16,17,16,17,18,17,16,18,16,17,18,15,17,17,16,17,17,16,17,16,17,18,16,17,18,16,16,17,16,17,17,16,18,16,18,17]","110","960","469","false","20","20","black","1","false","1","1","1920","938","d","staircase_color","","","","",""
"","","","","","html-keyboard-response","45","250313","0.0-5.0-1.0-1.0-0.0-1.0-0.0-0.0-2.0","null","","null","<p style='font-size: 60px; color: green'>正确!</p>","","","","","","","","","","","","","","","","","","","","","","","","","","","","","","","","","","","","","","","","","","","","","","","",""
"","","","","","html-keyboard-response","46","251749","0.0-5.0-1.0-1.0-0.0-1.0-0.0-0.0-0.1","null","fixation","null","<p style='font-size: 48px; color: white'>+</p >","","","","","","","","","","","","","","","","","","","","","","","","","","","","","","","","","","","","","","","","","","","","","","","",""
"","","","","","rdk","47","253503","0.0-5.0-1.0-1.0-0.0-1.0-0.0-0.0-1.1","816","color_test","k","","true","[""d"",""k""]","k","3000","true","1","100","0","0","0","3","1","-1","2","300","300","[""hsl(0, 50%, 50%)"",""hsl(225, 50%, 50%)""]","[""hsl(225, 50%, 50%)"",""hsl(0, 50%, 50%)""]","0.5","0.56","0","circle","black","3","2","2","16.632653061224488","[10,16,17,17,16,17,18,17,16,17,16,19,15,17,18,16,16,19,15,18,18,15,18,15,18,16,16,17,18,17,15,18,17,15,17,16,18,16,17,17,16,17,18,15,16,17,18,15,19]","49","960","469","false","20","20","black","1","false","1","1","1920","938","k","staircase_color","","","","",""
"","","","","","html-keyboard-response","48","254941","0.0-5.0-1.0-1.0-0.0-1.0-0.0-0.0-2.1","null","","null","<p style='font-size: 60px; color: green'>正确!</p>","","","","","","","","","","","","","","","","","","","","","","","","","","","","","","","","","","","","","","","","","","","","","","","",""
"","","","","","html-keyboard-response","49","256377","0.0-5.0-1.0-1.0-0.0-1.0-0.0-0.0-0.2","null","fixation","null","<p style='font-size: 48px; color: white'>+</p >","","","","","","","","","","","","","","","","","","","","","","","","","","","","","","","","","","","","","","","","","","","","","","","",""
"","","","","","rdk","50","258318","0.0-5.0-1.0-1.0-0.0-1.0-0.0-0.0-1.2","1004","color_test","d","","true","[""d"",""k""]","d","3000","true","1","100","0","0","0","3","1","-1","2","300","300","[""hsl(0, 50%, 50%)"",""hsl(225, 50%, 50%)""]","[""hsl(0, 50%, 50%)"",""hsl(225, 50%, 50%)""]","0.5","0.56","0","circle","black","3","2","2","16.6","[16,16,17,16,18,17,17,16,17,17,16,17,16,17,16,18,15,17,17,16,17,17,17,16,16,17,17,16,17,16,18,16,16,17,17,16,18,15,17,16,17,16,17,16,17,16,17,16,17,16,17,16,17,16,17,17,17,16,18,16]","60","960","469","false","20","20","black","1","false","1","1","1920","938","d","staircase_color","","","","",""
"","","","","","html-keyboard-response","51","259754","0.0-5.0-1.0-1.0-0.0-1.0-0.0-0.0-2.2","null","","null","<p style='font-size: 60px; color: green'>正确!</p>","","","","","","","","","","","","","","","","","","","","","","","","","","","","","","","","","","","","","","","","","","","","","","","",""
"","","","","","html-keyboard-response","52","261191","0.0-5.0-1.0-1.0-0.0-1.0-0.0-0.0-0.3","null","fixation","null","<p style='font-size: 48px; color: white'>+</p >","","","","","","","","","","","","","","","","","","","","","","","","","","","","","","","","","","","","","","","","","","","","","","","",""
"","","","","","rdk","53","263020","0.0-5.0-1.0-1.0-0.0-1.0-0.0-0.0-1.3","891","color_test","k","","true","[""d"",""k""]","k","3000","true","1","100","0","0","0","3","1","-1","2","300","300","[""hsl(0, 50%, 50%)"",""hsl(225, 50%, 50%)""]","[""hsl(225, 50%, 50%)"",""hsl(0, 50%, 50%)""]","0.5","0.56","0","circle","black","3","2","2","16.69811320754717","[17,17,16,17,18,16,18,16,16,17,17,16,17,16,18,16,16,17,17,16,18,16,17,16,18,16,17,17,17,16,17,16,17,17,16,16,18,16,17,16,18,15,18,16,17,15,17,16,17,17,17,16,18]","53","960","469","false","20","20","black","1","false","1","1","1920","938","k","staircase_color","","","","",""
"","","","","","html-keyboard-response","54","264457","0.0-5.0-1.0-1.0-0.0-1.0-0.0-0.0-2.3","null","","null","<p style='font-size: 60px; color: green'>正确!</p>","","","","","","","","","","","","","","","","","","","","","","","","","","","","","","","","","","","","","","","","","","","","","","","",""
"","","","","","html-keyboard-response","55","265896","0.0-5.0-1.0-1.0-0.0-1.0-0.0-0.0-0.4","null","fixation","null","<p style='font-size: 48px; color: white'>+</p >","","","","","","","","","","","","","","","","","","","","","","","","","","","","","","","","","","","","","","","","","","","","","","","",""
"","","","","","rdk","56","267725","0.0-5.0-1.0-1.0-0.0-1.0-0.0-0.0-1.4","891","color_test","d","","false","[""d"",""k""]","k","3000","true","1","100","0","0","0","3","1","-1","2","300","300","[""hsl(0, 50%, 50%)"",""hsl(225, 50%, 50%)""]","[""hsl(225, 50%, 50%)"",""hsl(0, 50%, 50%)""]","0.5","0.56","0","circle","black","3","2","2","16.547169811320753","[12,17,16,18,17,17,16,17,15,17,16,17,18,15,18,16,15,17,18,16,17,15,17,18,15,18,17,16,17,17,16,16,17,17,17,17,16,17,16,17,17,16,17,17,16,17,17,17,17,16,16,17,16]","53","960","469","false","20","20","black","1","false","1","1","1920","938","k","staircase_color","","","","",""
"","","","","","html-keyboard-response","57","269162","0.0-5.0-1.0-1.0-0.0-1.0-0.0-0.0-2.4","null","","null","<p style='font-size: 60px; color: red'>错误!</p>","","","","","","","","","","","","","","","","","","","","","","","","","","","","","","","","","","","","","","","","","","","","","","","",""
"","","","","","html-keyboard-response","58","270598","0.0-5.0-1.0-1.0-0.0-1.0-0.0-0.0-0.5","null","fixation","null","<p style='font-size: 48px; color: white'>+</p >","","","","","","","","","","","","","","","","","","","","","","","","","","","","","","","","","","","","","","","","","","","","","","","",""
"","","","","","rdk","59","272460","0.0-5.0-1.0-1.0-0.0-1.0-0.0-0.0-1.5","922","color_test","k","","true","[""d"",""k""]","k","3000","true","1","100","0","0","0","3","1","-1","2","300","300","[""hsl(0, 50%, 50%)"",""hsl(225, 50%, 50%)""]","[""hsl(225, 50%, 50%)"",""hsl(0, 50%, 50%)""]","0.5","0.56","0","circle","black","3","2","2","16.636363636363637","[8,16,17,18,16,17,18,16,16,18,16,17,17,18,16,17,16,18,15,18,16,16,17,17,16,18,17,17,15,17,17,17,16,18,16,16,18,16,17,18,16,17,17,18,17,15,17,16,17,17,16,18,16,17,18]","55","960","469","false","20","20","black","1","false","1","1","1920","938","k","staircase_color","","","","",""
"","","","","","html-keyboard-response","60","273897","0.0-5.0-1.0-1.0-0.0-1.0-0.0-0.0-2.5","null","","null","<p style='font-size: 60px; color: green'>正确!</p>","","","","","","","","","","","","","","","","","","","","","","","","","","","","","","","","","","","","","","","","","","","","","","","",""
"","","","","","html-keyboard-response","61","275333","0.0-5.0-1.0-1.0-0.0-1.0-0.0-0.0-0.6","null","fixation","null","<p style='font-size: 48px; color: white'>+</p >","","","","","","","","","","","","","","","","","","","","","","","","","","","","","","","","","","","","","","","","","","","","","","","",""
"","","","","","rdk","62","277020","0.0-5.0-1.0-1.0-0.0-1.0-0.0-0.0-1.6","749","color_test","d","","true","[""d"",""k""]","d","3000","true","1","100","0","0","0","3","1","-1","2","300","300","[""hsl(0, 50%, 50%)"",""hsl(225, 50%, 50%)""]","[""hsl(0, 50%, 50%)"",""hsl(225, 50%, 50%)""]","0.5","0.56","0","circle","black","3","2","2","16.511111111111113","[9,16,16,17,16,18,16,18,15,17,18,15,16,17,18,16,17,16,17,18,16,16,18,17,16,16,16,19,15,17,18,16,16,17,16,18,16,18,16,16,17,18,16,17,16]","45","960","469","false","20","20","black","1","false","1","1","1920","938","d","staircase_color","","","","",""
"","","","","","html-keyboard-response","63","278456","0.0-5.0-1.0-1.0-0.0-1.0-0.0-0.0-2.6","null","","null","<p style='font-size: 60px; color: green'>正确!</p>","","","","","","","","","","","","","","","","","","","","","","","","","","","","","","","","","","","","","","","","","","","","","","","",""
"","","","","","html-keyboard-response","64","279893","0.0-5.0-1.0-1.0-0.0-1.0-0.0-0.0-0.7","null","fixation","null","<p style='font-size: 48px; color: white'>+</p >","","","","","","","","","","","","","","","","","","","","","","","","","","","","","","","","","","","","","","","","","","","","","","","",""
"","","","","","rdk","65","282125","0.0-5.0-1.0-1.0-0.0-1.0-0.0-0.0-1.7","1293","color_test","d","","true","[""d"",""k""]","d","3000","true","1","100","0","0","0","3","1","-1","2","300","300","[""hsl(0, 50%, 50%)"",""hsl(225, 50%, 50%)""]","[""hsl(0, 50%, 50%)"",""hsl(225, 50%, 50%)""]","0.5","0.56","0","circle","black","3","2","2","16.571428571428573","[14,16,18,15,17,18,16,17,16,17,16,18,15,17,16,17,16,17,16,18,16,18,14,18,16,18,16,18,17,16,17,17,15,17,17,16,17,15,17,17,16,17,16,17,17,16,17,17,16,17,16,17,16,18,15,18,15,17,16,18,16,17,17,16,16,17,17,17,17,16,17,16,17,16,18,16,16]","77","960","469","false","20","20","black","1","false","1","1","1920","938","d","staircase_color","","","","",""
"","","","","","html-keyboard-response","66","283561","0.0-5.0-1.0-1.0-0.0-1.0-0.0-0.0-2.7","null","","null","<p style='font-size: 60px; color: green'>正确!</p>","","","","","","","","","","","","","","","","","","","","","","","","","","","","","","","","","","","","","","","","","","","","","","","",""
"","","","","","html-keyboard-response","67","284997","0.0-5.0-1.0-1.0-0.0-1.0-0.0-0.0-0.8","null","fixation","null","<p style='font-size: 48px; color: white'>+</p >","","","","","","","","","","","","","","","","","","","","","","","","","","","","","","","","","","","","","","","","","","","","","","","",""
"","","","","","rdk","68","288796","0.0-5.0-1.0-1.0-0.0-1.0-0.0-0.0-1.8","2861","color_test","d","","true","[""d"",""k""]","d","3000","true","1","100","0","0","0","3","1","-1","2","300","300","[""hsl(0, 50%, 50%)"",""hsl(225, 50%, 50%)""]","[""hsl(0, 50%, 50%)"",""hsl(225, 50%, 50%)""]","0.5","0.56","0","circle","black","3","2","2","16.65497076023392","[11,17,16,17,16,16,17,17,18,16,17,16,17,18,15,17,16,18,16,16,16,18,16,19,15,18,17,16,16,17,17,16,16,17,18,16,16,17,16,17,18,16,16,17,17,17,17,16,17,16,18,15,18,15,17,16,17,18,15,18,17,15,16,17,18,16,18,16,16,18,17,16,16,17,17,18,16,16,17,18,16,16,17,16,18,17,16,17,16,17,17,16,17,17,17,16,17,16,19,16,16,17,17,16,19,15,17,17,16,16,17,17,17,15,18,15,16,17,17,16,17,18,17,14,17,16,18,17,17,15,17,17,16,16,17,17,18,17,15,17,16,18,16,17,17,18,16,17,16,17,18,16,17,18,16,16,18,17,17,15,18,16,17,16,17,18,16,16,17,16,17]","171","960","469","false","20","20","black","1","false","1","1","1920","938","d","staircase_color","","","","",""
"","","","","","html-keyboard-response","69","290233","0.0-5.0-1.0-1.0-0.0-1.0-0.0-0.0-2.8","null","","null","<p style='font-size: 60px; color: green'>正确!</p>","","","","","","","","","","","","","","","","","","","","","","","","","","","","","","","","","","","","","","","","","","","","","","","",""
"","","","","","html-keyboard-response","70","291669","0.0-5.0-1.0-1.0-0.0-1.0-0.0-0.0-0.9","null","fixation","null","<p style='font-size: 48px; color: white'>+</p >","","","","","","","","","","","","","","","","","","","","","","","","","","","","","","","","","","","","","","","","","","","","","","","",""
"","","","","","rdk","71","293356","0.0-5.0-1.0-1.0-0.0-1.0-0.0-0.0-1.9","749","color_test","k","","true","[""d"",""k""]","k","3000","true","1","100","0","0","0","3","1","-1","2","300","300","[""hsl(0, 50%, 50%)"",""hsl(225, 50%, 50%)""]","[""hsl(225, 50%, 50%)"",""hsl(0, 50%, 50%)""]","0.5","0.56","0","circle","black","3","2","2","16.511111111111113","[7,17,17,16,18,16,17,16,17,17,16,17,16,17,18,16,16,17,18,17,15,17,17,16,18,16,17,16,19,15,18,17,16,16,18,15,17,18,15,16,19,15,19,14,18]","45","960","469","false","20","20","black","1","false","1","1","1920","938","k","staircase_color","","","","",""
"","","","","","html-keyboard-response","72","294793","0.0-5.0-1.0-1.0-0.0-1.0-0.0-0.0-2.9","null","","null","<p style='font-size: 60px; color: green'>正确!</p>","","","","","","","","","","","","","","","","","","","","","","","","","","","","","","","","","","","","","","","","","","","","","","","",""
"","","","","","html-keyboard-response","73","296231","0.0-5.0-1.0-1.0-0.0-1.0-0.0-0.0-0.10","null","fixation","null","<p style='font-size: 48px; color: white'>+</p >","","","","","","","","","","","","","","","","","","","","","","","","","","","","","","","","","","","","","","","","","","","","","","","",""
"","","","","","rdk","74","297919","0.0-5.0-1.0-1.0-0.0-1.0-0.0-0.0-1.10","749","color_test","k","","true","[""d"",""k""]","k","3000","true","1","100","0","0","0","3","1","-1","2","300","300","[""hsl(0, 50%, 50%)"",""hsl(225, 50%, 50%)""]","[""hsl(225, 50%, 50%)"",""hsl(0, 50%, 50%)""]","0.5","0.56","0","circle","black","3","2","2","16.6","[9,16,17,16,18,16,19,15,17,18,15,18,16,16,17,16,17,18,17,15,17,16,17,18,16,18,16,16,18,16,16,18,16,17,18,16,16,18,16,19,15,18,16,18,16]","45","960","469","false","20","20","black","1","false","1","1","1920","938","k","staircase_color","","","","",""
"","","","","","html-keyboard-response","75","299361","0.0-5.0-1.0-1.0-0.0-1.0-0.0-0.0-2.10","null","","null","<p style='font-size: 60px; color: green'>正确!</p>","","","","","","","","","","","","","","","","","","","","","","","","","","","","","","","","","","","","","","","","","","","","","","","",""
"","","","","","html-keyboard-response","76","300797","0.0-5.0-1.0-1.0-0.0-1.0-0.0-0.0-0.11","null","fixation","null","<p style='font-size: 48px; color: white'>+</p >","","","","","","","","","","","","","","","","","","","","","","","","","","","","","","","","","","","","","","","","","","","","","","","",""
"","","","","","rdk","77","302525","0.0-5.0-1.0-1.0-0.0-1.0-0.0-0.0-1.11","788","color_test","d","","true","[""d"",""k""]","d","3000","true","1","100","0","0","0","3","1","-1","2","300","300","[""hsl(0, 50%, 50%)"",""hsl(225, 50%, 50%)""]","[""hsl(0, 50%, 50%)"",""hsl(225, 50%, 50%)""]","0.5","0.56","0","circle","black","3","2","2","16.51063829787234","[12,16,16,17,16,17,17,17,16,17,16,18,15,17,16,18,16,16,17,16,17,17,16,17,18,16,16,17,16,18,15,17,16,17,16,19,15,16,18,15,17,16,18,16,18,16,17]","47","960","469","false","20","20","black","1","false","1","1","1920","938","d","staircase_color","","","","",""
"","","","","","html-keyboard-response","78","303962","0.0-5.0-1.0-1.0-0.0-1.0-0.0-0.0-2.11","null","","null","<p style='font-size: 60px; color: green'>正确!</p>","","","","","","","","","","","","","","","","","","","","","","","","","","","","","","","","","","","","","","","","","","","","","","","",""
"","","","","","html-keyboard-response","79","306899","0.0-5.0-1.0-1.0-0.0-1.0-0.0-1.0","null","","null","<p style='font-size: 35px; color: white'>您的正确率为： 92% 。平均反应时为：1129毫秒。</p>","","","","","","","","","","","","","","","","","","","","","","","","","","","","","","","","","","","","","","","","","","","","","","","",""
"","","","","","html-keyboard-response","80","308337","0.0-5.0-1.0-1.0-0.0-2.0-0.0-0.0-0.0","null","fixation","null","<p style='font-size: 48px; color: white'>+</p >","","","","","","","","","","","","","","","","","","","","","","","","","","","","","","","","","","","","","","","","","","","","","","","",""
"","","","","","rdk","81","310253","0.0-5.0-1.0-1.0-0.0-2.0-0.0-0.0-1.0","980","color_test","d","","true","[""d"",""k""]","d","3000","true","1","100","0","0","0","3","1","-1","2","300","300","[""hsl(0, 50%, 50%)"",""hsl(225, 50%, 50%)""]","[""hsl(0, 50%, 50%)"",""hsl(225, 50%, 50%)""]","0.5","0.54","0","circle","black","3","2","2","16.54237288135593","[6,17,17,17,16,17,18,16,16,17,16,16,16,17,18,16,18,16,19,15,18,17,16,16,16,18,16,17,17,18,17,15,18,16,17,16,18,15,18,16,17,16,17,18,16,17,16,17,16,17,16,19,15,17,17,16,16,17,17]","59","960","469","false","20","20","black","1","false","1","1","1920","938","d","staircase_color","","","","",""
"","","","","","html-keyboard-response","82","311689","0.0-5.0-1.0-1.0-0.0-2.0-0.0-0.0-2.0","null","","null","<p style='font-size: 60px; color: green'>正确!</p>","","","","","","","","","","","","","","","","","","","","","","","","","","","","","","","","","","","","","","","","","","","","","","","",""
"","","","","","html-keyboard-response","83","313125","0.0-5.0-1.0-1.0-0.0-2.0-0.0-0.0-0.1","null","fixation","null","<p style='font-size: 48px; color: white'>+</p >","","","","","","","","","","","","","","","","","","","","","","","","","","","","","","","","","","","","","","","","","","","","","","","",""
"","","","","","rdk","84","314765","0.0-5.0-1.0-1.0-0.0-2.0-0.0-0.0-1.1","701","color_test","d","","false","[""d"",""k""]","k","3000","true","1","100","0","0","0","3","1","-1","2","300","300","[""hsl(0, 50%, 50%)"",""hsl(225, 50%, 50%)""]","[""hsl(225, 50%, 50%)"",""hsl(0, 50%, 50%)""]","0.5","0.54","0","circle","black","3","2","2","16.585365853658537","[15,17,16,17,18,17,17,17,15,18,15,17,16,17,16,17,15,16,17,18,16,16,17,16,17,16,17,16,18,16,17,17,17,15,16,16,18,17,16,19,16]","41","960","469","false","20","20","black","1","false","1","1","1920","938","k","staircase_color","","","","",""
"","","","","","html-keyboard-response","85","316202","0.0-5.0-1.0-1.0-0.0-2.0-0.0-0.0-2.1","null","","null","<p style='font-size: 60px; color: red'>错误!</p>","","","","","","","","","","","","","","","","","","","","","","","","","","","","","","","","","","","","","","","","","","","","","","","",""
"","","","","","html-keyboard-response","86","317639","0.0-5.0-1.0-1.0-0.0-2.0-0.0-0.0-0.2","null","fixation","null","<p style='font-size: 48px; color: white'>+</p >","","","","","","","","","","","","","","","","","","","","","","","","","","","","","","","","","","","","","","","","","","","","","","","",""
"","","","","","rdk","87","319676","0.0-5.0-1.0-1.0-0.0-2.0-0.0-0.0-1.2","1100","color_test","d","","true","[""d"",""k""]","d","3000","true","1","100","0","0","0","3","1","-1","2","300","300","[""hsl(0, 50%, 50%)"",""hsl(225, 50%, 50%)""]","[""hsl(0, 50%, 50%)"",""hsl(225, 50%, 50%)""]","0.5","0.54","0","circle","black","3","2","2","16.661538461538463","[19,18,16,17,16,17,16,17,16,17,16,19,16,16,17,17,17,16,17,17,16,16,18,16,18,16,18,15,17,16,16,17,16,18,16,17,17,16,17,17,16,16,18,16,18,15,17,16,17,18,15,17,16,16,17,17,16,17,16,18,15,17,16,17,16]","65","960","469","false","20","20","black","1","false","1","1","1920","938","d","staircase_color","","","","",""
"","","","","","html-keyboard-response","88","321112","0.0-5.0-1.0-1.0-0.0-2.0-0.0-0.0-2.2","null","","null","<p style='font-size: 60px; color: green'>正确!</p>","","","","","","","","","","","","","","","","","","","","","","","","","","","","","","","","","","","","","","","","","","","","","","","",""
"","","","","","html-keyboard-response","89","322548","0.0-5.0-1.0-1.0-0.0-2.0-0.0-0.0-0.3","null","fixation","null","<p style='font-size: 48px; color: white'>+</p >","","","","","","","","","","","","","","","","","","","","","","","","","","","","","","","","","","","","","","","","","","","","","","","",""
"","","","","","rdk","90","324189","0.0-5.0-1.0-1.0-0.0-2.0-0.0-0.0-1.3","704","color_test","k","","true","[""d"",""k""]","k","3000","true","1","100","0","0","0","3","1","-1","2","300","300","[""hsl(0, 50%, 50%)"",""hsl(225, 50%, 50%)""]","[""hsl(225, 50%, 50%)"",""hsl(0, 50%, 50%)""]","0.5","0.54","0","circle","black","3","2","2","16.452380952380953","[11,15,17,16,19,17,16,16,17,16,17,16,17,17,16,17,16,17,17,16,16,18,16,18,15,18,16,17,17,16,17,16,16,18,16,16,17,16,17,16,17,16]","42","960","469","false","20","20","black","1","false","1","1","1920","938","k","staircase_color","","","","",""
"","","","","","html-keyboard-response","91","325625","0.0-5.0-1.0-1.0-0.0-2.0-0.0-0.0-2.3","null","","null","<p style='font-size: 60px; color: green'>正确!</p>","","","","","","","","","","","","","","","","","","","","","","","","","","","","","","","","","","","","","","","","","","","","","","","",""
"","","","","","html-keyboard-response","92","327062","0.0-5.0-1.0-1.0-0.0-2.0-0.0-0.0-0.4","null","fixation","null","<p style='font-size: 48px; color: white'>+</p >","","","","","","","","","","","","","","","","","","","","","","","","","","","","","","","","","","","","","","","","","","","","","","","",""
"","","","","","rdk","93","329083","0.0-5.0-1.0-1.0-0.0-2.0-0.0-0.0-1.4","1084","color_test","d","","false","[""d"",""k""]","k","3000","true","1","100","0","0","0","3","1","-1","2","300","300","[""hsl(0, 50%, 50%)"",""hsl(225, 50%, 50%)""]","[""hsl(225, 50%, 50%)"",""hsl(0, 50%, 50%)""]","0.5","0.54","0","circle","black","3","2","2","16.584615384615386","[13,17,16,18,17,18,15,17,17,16,16,17,17,16,16,17,16,18,16,18,15,17,17,16,17,16,17,16,17,16,17,16,17,16,17,17,16,17,17,16,17,16,18,16,18,16,17,16,17,16,18,16,16,18,15,18,16,16,16,18,16,18,14,17,18]","65","960","469","false","20","20","black","1","false","1","1","1920","938","k","staircase_color","","","","",""
"","","","","","html-keyboard-response","94","330520","0.0-5.0-1.0-1.0-0.0-2.0-0.0-0.0-2.4","null","","null","<p style='font-size: 60px; color: red'>错误!</p>","","","","","","","","","","","","","","","","","","","","","","","","","","","","","","","","","","","","","","","","","","","","","","","",""
"","","","","","html-keyboard-response","95","331957","0.0-5.0-1.0-1.0-0.0-2.0-0.0-0.0-0.5","null","fixation","null","<p style='font-size: 48px; color: white'>+</p >","","","","","","","","","","","","","","","","","","","","","","","","","","","","","","","","","","","","","","","","","","","","","","","",""
"","","","","","rdk","96","334460","0.0-5.0-1.0-1.0-0.0-2.0-0.0-0.0-1.5","1566","color_test","d","","true","[""d"",""k""]","d","3000","true","1","100","0","0","0","3","1","-1","2","300","300","[""hsl(0, 50%, 50%)"",""hsl(225, 50%, 50%)""]","[""hsl(0, 50%, 50%)"",""hsl(225, 50%, 50%)""]","0.5","0.54","0","circle","black","3","2","2","16.634408602150536","[18,17,17,18,16,16,18,16,17,16,18,15,17,16,17,16,17,16,17,18,15,17,16,17,17,16,17,17,16,17,16,18,16,17,16,17,16,19,15,17,16,17,16,16,18,16,17,17,16,17,16,16,18,16,17,18,16,16,16,17,16,17,17,16,17,17,17,16,17,16,18,16,17,16,17,17,16,16,17,16,17,17,16,16,17,16,17,17,17,16,16,17,16]","93","960","469","false","20","20","black","1","false","1","1","1920","938","d","staircase_color","","","","",""
"","","","","","html-keyboard-response","97","335895","0.0-5.0-1.0-1.0-0.0-2.0-0.0-0.0-2.5","null","","null","<p style='font-size: 60px; color: green'>正确!</p>","","","","","","","","","","","","","","","","","","","","","","","","","","","","","","","","","","","","","","","","","","","","","","","",""
"","","","","","html-keyboard-response","98","337332","0.0-5.0-1.0-1.0-0.0-2.0-0.0-0.0-0.6","null","fixation","null","<p style='font-size: 48px; color: white'>+</p >","","","","","","","","","","","","","","","","","","","","","","","","","","","","","","","","","","","","","","","","","","","","","","","",""
"","","","","","rdk","99","338972","0.0-5.0-1.0-1.0-0.0-2.0-0.0-0.0-1.6","701","color_test","d","","true","[""d"",""k""]","d","3000","true","1","100","0","0","0","3","1","-1","2","300","300","[""hsl(0, 50%, 50%)"",""hsl(225, 50%, 50%)""]","[""hsl(0, 50%, 50%)"",""hsl(225, 50%, 50%)""]","0.5","0.54","0","circle","black","3","2","2","16.523809523809526","[9,17,16,17,17,16,16,17,16,17,17,17,16,17,16,17,18,16,16,18,16,16,17,18,16,18,16,17,17,16,17,17,17,16,17,18,16,16,17,16,17,17]","42","960","469","false","20","20","black","1","false","1","1","1920","938","d","staircase_color","","","","",""
"","","","","","html-keyboard-response","100","340408","0.0-5.0-1.0-1.0-0.0-2.0-0.0-0.0-2.6","null","","null","<p style='font-size: 60px; color: green'>正确!</p>","","","","","","","","","","","","","","","","","","","","","","","","","","","","","","","","","","","","","","","","","","","","","","","",""
"","","","","","html-keyboard-response","101","341844","0.0-5.0-1.0-1.0-0.0-2.0-0.0-0.0-0.7","null","fixation","null","<p style='font-size: 48px; color: white'>+</p >","","","","","","","","","","","","","","","","","","","","","","","","","","","","","","","","","","","","","","","","","","","","","","","",""
"","","","","","rdk","102","345020","0.0-5.0-1.0-1.0-0.0-2.0-0.0-0.0-1.7","2239","color_test","k","","true","[""d"",""k""]","k","3000","true","1","100","0","0","0","3","1","-1","2","300","300","[""hsl(0, 50%, 50%)"",""hsl(225, 50%, 50%)""]","[""hsl(225, 50%, 50%)"",""hsl(0, 50%, 50%)""]","0.5","0.54","0","circle","black","3","2","2","16.611940298507463","[14,16,18,16,17,18,16,16,18,15,17,17,15,17,16,18,16,16,16,18,16,17,16,18,16,17,16,17,16,17,17,16,17,17,17,16,17,16,16,17,16,18,15,17,16,18,16,16,17,16,17,16,17,16,18,16,17,16,18,16,17,16,17,16,18,16,17,16,18,16,17,17,16,17,16,17,16,17,16,17,16,18,16,18,15,17,16,17,16,17,16,17,16,17,16,18,16,18,15,17,16,18,16,17,16,18,16,18,16,17,16,16,18,16,17,17,15,17,16,17,18,16,18,16,17,16,17,17,17,15,18,16,17,16]","134","960","469","false","20","20","black","1","false","1","1","1920","938","k","staircase_color","","","","",""
"","","","","","html-keyboard-response","103","346457","0.0-5.0-1.0-1.0-0.0-2.0-0.0-0.0-2.7","null","","null","<p style='font-size: 60px; color: green'>正确!</p>","","","","","","","","","","","","","","","","","","","","","","","","","","","","","","","","","","","","","","","","","","","","","","","",""
"","","","","","html-keyboard-response","104","347893","0.0-5.0-1.0-1.0-0.0-2.0-0.0-0.0-0.8","null","fixation","null","<p style='font-size: 48px; color: white'>+</p >","","","","","","","","","","","","","","","","","","","","","","","","","","","","","","","","","","","","","","","","","","","","","","","",""
"","","","","","rdk","105","351070","0.0-5.0-1.0-1.0-0.0-2.0-0.0-0.0-1.8","2239","color_test","k","","true","[""d"",""k""]","k","3000","true","1","100","0","0","0","3","1","-1","2","300","300","[""hsl(0, 50%, 50%)"",""hsl(225, 50%, 50%)""]","[""hsl(225, 50%, 50%)"",""hsl(0, 50%, 50%)""]","0.5","0.54","0","circle","black","3","2","2","16.71641791044776","[15,16,17,16,17,18,18,15,17,17,16,18,15,17,16,17,16,17,17,17,16,17,17,16,18,17,17,15,17,17,16,16,17,17,17,17,15,18,15,18,16,18,16,18,16,18,16,18,17,16,17,16,16,19,15,18,15,18,16,16,17,16,18,15,18,16,18,16,19,15,17,16,18,16,18,16,17,16,18,16,19,15,18,16,16,17,16,17,16,19,15,17,16,17,18,16,16,17,16,17,17,16,16,17,17,17,16,17,18,16,17,16,17,16,18,15,19,15,17,16,18,15,19,16,16,19,15,18,16,18,16,19,15,17]","134","960","469","false","20","20","black","1","false","1","1","1920","938","k","staircase_color","","","","",""
"","","","","","html-keyboard-response","106","352507","0.0-5.0-1.0-1.0-0.0-2.0-0.0-0.0-2.8","null","","null","<p style='font-size: 60px; color: green'>正确!</p>","","","","","","","","","","","","","","","","","","","","","","","","","","","","","","","","","","","","","","","","","","","","","","","",""
"","","","","","html-keyboard-response","107","353943","0.0-5.0-1.0-1.0-0.0-2.0-0.0-0.0-0.9","null","fixation","null","<p style='font-size: 48px; color: white'>+</p >","","","","","","","","","","","","","","","","","","","","","","","","","","","","","","","","","","","","","","","","","","","","","","","",""
"","","","","","rdk","108","355675","0.0-5.0-1.0-1.0-0.0-2.0-0.0-0.0-1.9","795","color_test","d","","false","[""d"",""k""]","k","3000","true","1","100","0","0","0","3","1","-1","2","300","300","[""hsl(0, 50%, 50%)"",""hsl(225, 50%, 50%)""]","[""hsl(225, 50%, 50%)"",""hsl(0, 50%, 50%)""]","0.5","0.54","0","circle","black","3","2","2","16.638297872340427","[17,17,17,15,17,17,17,16,16,17,16,17,17,17,16,15,18,17,18,17,15,16,18,15,18,16,17,16,18,17,16,16,18,16,16,17,17,16,18,15,17,16,17,17,16,17,17]","47","960","469","false","20","20","black","1","false","1","1","1920","938","k","staircase_color","","","","",""
"","","","","","html-keyboard-response","109","357113","0.0-5.0-1.0-1.0-0.0-2.0-0.0-0.0-2.9","null","","null","<p style='font-size: 60px; color: red'>错误!</p>","","","","","","","","","","","","","","","","","","","","","","","","","","","","","","","","","","","","","","","","","","","","","","","",""
"","","","","","html-keyboard-response","110","358549","0.0-5.0-1.0-1.0-0.0-2.0-0.0-0.0-0.10","null","fixation","null","<p style='font-size: 48px; color: white'>+</p >","","","","","","","","","","","","","","","","","","","","","","","","","","","","","","","","","","","","","","","","","","","","","","","",""
"","","","","","rdk","111","360428","0.0-5.0-1.0-1.0-0.0-2.0-0.0-0.0-1.10","943","color_test","d","","true","[""d"",""k""]","d","3000","true","1","100","0","0","0","3","1","-1","2","300","300","[""hsl(0, 50%, 50%)"",""hsl(225, 50%, 50%)""]","[""hsl(0, 50%, 50%)"",""hsl(225, 50%, 50%)""]","0.5","0.54","0","circle","black","3","2","2","16.482142857142858","[11,16,17,17,15,18,16,17,16,17,17,18,15,17,16,17,16,17,16,17,16,18,16,18,16,16,17,16,17,16,17,16,18,16,16,17,17,16,18,15,16,19,16,16,16,17,16,17,17,16,16,17,16,18,15,17]","56","960","469","false","20","20","black","1","false","1","1","1920","938","d","staircase_color","","","","",""
"","","","","","html-keyboard-response","112","361865","0.0-5.0-1.0-1.0-0.0-2.0-0.0-0.0-2.10","null","","null","<p style='font-size: 60px; color: green'>正确!</p>","","","","","","","","","","","","","","","","","","","","","","","","","","","","","","","","","","","","","","","","","","","","","","","",""
"","","","","","html-keyboard-response","113","363302","0.0-5.0-1.0-1.0-0.0-2.0-0.0-0.0-0.11","null","fixation","null","<p style='font-size: 48px; color: white'>+</p >","","","","","","","","","","","","","","","","","","","","","","","","","","","","","","","","","","","","","","","","","","","","","","","",""
"","","","","","rdk","114","365179","0.0-5.0-1.0-1.0-0.0-2.0-0.0-0.0-1.11","940","color_test","d","","true","[""d"",""k""]","d","3000","true","1","100","0","0","0","3","1","-1","2","300","300","[""hsl(0, 50%, 50%)"",""hsl(225, 50%, 50%)""]","[""hsl(0, 50%, 50%)"",""hsl(225, 50%, 50%)""]","0.5","0.54","0","circle","black","3","2","2","16.571428571428573","[7,16,17,16,17,17,16,18,18,16,16,18,18,16,16,17,16,18,16,18,17,16,16,17,18,16,18,15,17,19,15,18,16,17,16,15,18,16,17,17,17,16,17,17,16,17,18,17,15,17,16,17,18,16,16,17]","56","960","469","false","20","20","black","1","false","1","1","1920","938","d","staircase_color","","","","",""
"","","","","","html-keyboard-response","115","366616","0.0-5.0-1.0-1.0-0.0-2.0-0.0-0.0-2.11","null","","null","<p style='font-size: 60px; color: green'>正确!</p>","","","","","","","","","","","","","","","","","","","","","","","","","","","","","","","","","","","","","","","","","","","","","","","",""
"","","","","","html-keyboard-response","116","369553","0.0-5.0-1.0-1.0-0.0-2.0-0.0-1.0","null","","null","<p style='font-size: 35px; color: white'>您的正确率为： 75% 。平均反应时为：1166毫秒。</p>","","","","","","","","","","","","","","","","","","","","","","","","","","","","","","","","","","","","","","","","","","","","","","","",""
"","","","","","html-keyboard-response","117","370991","0.0-5.0-1.0-1.0-0.0-3.0-0.0-0.0-0.0","null","fixation","null","<p style='font-size: 48px; color: white'>+</p >","","","","","","","","","","","","","","","","","","","","","","","","","","","","","","","","","","","","","","","","","","","","","","","",""
"","","","","","rdk","118","372686","0.0-5.0-1.0-1.0-0.0-3.0-0.0-0.0-1.0","758","color_test","d","","true","[""d"",""k""]","d","3000","true","1","100","0","0","0","3","1","-1","2","300","300","[""hsl(0, 50%, 50%)"",""hsl(225, 50%, 50%)""]","[""hsl(0, 50%, 50%)"",""hsl(225, 50%, 50%)""]","0.5","0.52","0","circle","black","3","2","2","16.666666666666668","[19,15,18,15,17,16,18,17,17,16,16,18,16,16,16,17,17,16,16,17,18,15,17,16,17,16,17,17,16,17,17,17,17,16,17,16,18,16,17,16,17,17,16,16,18]","45","960","469","false","20","20","black","1","false","1","1","1920","938","d","staircase_color","","","","",""
"","","","","","html-keyboard-response","119","374122","0.0-5.0-1.0-1.0-0.0-3.0-0.0-0.0-2.0","null","","null","<p style='font-size: 60px; color: green'>正确!</p>","","","","","","","","","","","","","","","","","","","","","","","","","","","","","","","","","","","","","","","","","","","","","","","",""
"","","","","","html-keyboard-response","120","375558","0.0-5.0-1.0-1.0-0.0-3.0-0.0-0.0-0.1","null","fixation","null","<p style='font-size: 48px; color: white'>+</p >","","","","","","","","","","","","","","","","","","","","","","","","","","","","","","","","","","","","","","","","","","","","","","","",""
"","","","","","rdk","121","377420","0.0-5.0-1.0-1.0-0.0-3.0-0.0-0.0-1.1","917","color_test","k","","false","[""d"",""k""]","d","3000","true","1","100","0","0","0","3","1","-1","2","300","300","[""hsl(0, 50%, 50%)"",""hsl(225, 50%, 50%)""]","[""hsl(0, 50%, 50%)"",""hsl(225, 50%, 50%)""]","0.5","0.52","0","circle","black","3","2","2","16.563636363636363","[10,16,17,17,16,18,16,18,16,16,19,15,17,17,16,16,18,16,17,18,16,17,16,18,16,16,17,17,16,16,17,16,18,16,17,18,16,19,14,17,18,15,17,16,18,16,17,15,16,18,16,18,16,17,16]","55","960","469","false","20","20","black","1","false","1","1","1920","938","d","staircase_color","","","","",""
"","","","","","html-keyboard-response","122","378856","0.0-5.0-1.0-1.0-0.0-3.0-0.0-0.0-2.1","null","","null","<p style='font-size: 60px; color: red'>错误!</p>","","","","","","","","","","","","","","","","","","","","","","","","","","","","","","","","","","","","","","","","","","","","","","","",""
"","","","","","html-keyboard-response","123","380293","0.0-5.0-1.0-1.0-0.0-3.0-0.0-0.0-0.2","null","fixation","null","<p style='font-size: 48px; color: white'>+</p >","","","","","","","","","","","","","","","","","","","","","","","","","","","","","","","","","","","","","","","","","","","","","","","",""
"","","","","","rdk","124","383756","0.0-5.0-1.0-1.0-0.0-3.0-0.0-0.0-1.2","2526","color_test","k","","true","[""d"",""k""]","k","3000","true","1","100","0","0","0","3","1","-1","2","300","300","[""hsl(0, 50%, 50%)"",""hsl(225, 50%, 50%)""]","[""hsl(225, 50%, 50%)"",""hsl(0, 50%, 50%)""]","0.5","0.52","0","circle","black","3","2","2","16.596026490066226","[17,17,16,17,16,17,17,16,17,16,17,17,16,17,17,16,17,16,17,16,17,16,17,16,17,16,17,16,17,17,16,17,16,17,16,17,16,17,17,16,17,16,17,17,16,17,16,18,16,16,17,17,16,17,16,17,16,17,17,16,17,16,16,17,18,16,16,18,16,18,16,16,17,16,17,16,17,16,17,16,17,16,17,17,17,16,17,16,16,18,16,17,17,16,17,17,17,15,17,16,18,16,16,17,17,17,16,16,17,16,18,16,16,17,16,18,16,16,17,16,18,16,17,16,16,17,17,16,17,17,17,18,15,16,17,17,16,17,16,17,16,17,16,17,17,16,17,16,17,16,17]","151","960","469","false","20","20","black","1","false","1","1","1920","938","k","staircase_color","","","","",""
"","","","","","html-keyboard-response","125","385193","0.0-5.0-1.0-1.0-0.0-3.0-0.0-0.0-2.2","null","","null","<p style='font-size: 60px; color: green'>正确!</p>","","","","","","","","","","","","","","","","","","","","","","","","","","","","","","","","","","","","","","","","","","","","","","","",""
"","","","","","html-keyboard-response","126","386629","0.0-5.0-1.0-1.0-0.0-3.0-0.0-0.0-0.3","null","fixation","null","<p style='font-size: 48px; color: white'>+</p >","","","","","","","","","","","","","","","","","","","","","","","","","","","","","","","","","","","","","","","","","","","","","","","",""
"","","","","","rdk","127","389436","0.0-5.0-1.0-1.0-0.0-3.0-0.0-0.0-1.3","1870","color_test","k","","true","[""d"",""k""]","k","3000","true","1","100","0","0","0","3","1","-1","2","300","300","[""hsl(0, 50%, 50%)"",""hsl(225, 50%, 50%)""]","[""hsl(225, 50%, 50%)"",""hsl(0, 50%, 50%)""]","0.5","0.52","0","circle","black","3","2","2","16.571428571428573","[11,17,16,17,17,17,17,15,18,16,18,16,16,18,16,18,15,17,16,17,16,17,17,16,16,17,17,18,15,17,16,17,16,17,16,17,18,16,17,16,17,17,15,17,17,17,16,16,17,17,16,16,18,15,18,15,17,16,17,17,17,16,16,16,17,18,17,16,17,17,16,16,18,15,16,17,17,16,17,17,16,17,17,16,17,17,17,16,16,16,17,17,16,17,18,15,18,16,18,17,16,16,18,16,17,16,17,17,16,17,16,17]","112","960","469","false","20","20","black","1","false","1","1","1920","938","k","staircase_color","","","","",""
"","","","","","html-keyboard-response","128","390873","0.0-5.0-1.0-1.0-0.0-3.0-0.0-0.0-2.3","null","","null","<p style='font-size: 60px; color: green'>正确!</p>","","","","","","","","","","","","","","","","","","","","","","","","","","","","","","","","","","","","","","","","","","","","","","","",""
"","","","","","html-keyboard-response","129","392310","0.0-5.0-1.0-1.0-0.0-3.0-0.0-0.0-0.4","null","fixation","null","<p style='font-size: 48px; color: white'>+</p >","","","","","","","","","","","","","","","","","","","","","","","","","","","","","","","","","","","","","","","","","","","","","","","",""
"","","","","","rdk","130","394539","0.0-5.0-1.0-1.0-0.0-3.0-0.0-0.0-1.4","1292","color_test","d","","false","[""d"",""k""]","k","3000","true","1","100","0","0","0","3","1","-1","2","300","300","[""hsl(0, 50%, 50%)"",""hsl(225, 50%, 50%)""]","[""hsl(225, 50%, 50%)"",""hsl(0, 50%, 50%)""]","0.5","0.52","0","circle","black","3","2","2","16.61038961038961","[15,16,17,18,17,17,15,17,16,17,18,16,17,16,17,17,17,15,17,16,17,16,17,17,16,17,17,17,17,15,18,16,17,15,17,18,16,17,16,16,17,17,18,16,17,17,16,17,18,16,17,16,18,15,17,16,18,16,16,17,17,16,17,16,18,15,17,17,16,17,16,17,17,17,16,16,16]","77","960","469","false","20","20","black","1","false","1","1","1920","938","k","staircase_color","","","","",""
"","","","","","html-keyboard-response","131","395976","0.0-5.0-1.0-1.0-0.0-3.0-0.0-0.0-2.4","null","","null","<p style='font-size: 60px; color: red'>错误!</p>","","","","","","","","","","","","","","","","","","","","","","","","","","","","","","","","","","","","","","","","","","","","","","","",""
"","","","","","html-keyboard-response","132","397413","0.0-5.0-1.0-1.0-0.0-3.0-0.0-0.0-0.5","null","fixation","null","<p style='font-size: 48px; color: white'>+</p >","","","","","","","","","","","","","","","","","","","","","","","","","","","","","","","","","","","","","","","","","","","","","","","",""
"","","","","","rdk","133","400236","0.0-5.0-1.0-1.0-0.0-3.0-0.0-0.0-1.5","1886","color_test","d","","true","[""d"",""k""]","d","3000","true","1","100","0","0","0","3","1","-1","2","300","300","[""hsl(0, 50%, 50%)"",""hsl(225, 50%, 50%)""]","[""hsl(0, 50%, 50%)"",""hsl(225, 50%, 50%)""]","0.5","0.52","0","circle","black","3","2","2","16.56637168141593","[13,16,18,16,17,18,17,15,18,16,18,17,16,16,17,16,16,17,16,16,17,17,16,17,17,16,17,16,18,15,18,15,17,16,16,18,15,17,17,17,16,17,16,15,17,18,15,17,18,16,17,16,17,16,17,16,18,15,17,16,18,16,17,17,18,15,17,17,16,17,16,16,17,16,17,18,16,17,16,16,17,17,16,18,17,15,17,17,16,17,16,18,15,17,16,16,17,16,17,17,17,16,17,16,17,17,16,17,17,17,16,17,16]","113","960","469","false","20","20","black","1","false","1","1","1920","938","d","staircase_color","","","","",""
"","","","","","html-keyboard-response","134","401673","0.0-5.0-1.0-1.0-0.0-3.0-0.0-0.0-2.5","null","","null","<p style='font-size: 60px; color: green'>正确!</p>","","","","","","","","","","","","","","","","","","","","","","","","","","","","","","","","","","","","","","","","","","","","","","","",""
"","","","","","html-keyboard-response","135","403109","0.0-5.0-1.0-1.0-0.0-3.0-0.0-0.0-0.6","null","fixation","null","<p style='font-size: 48px; color: white'>+</p >","","","","","","","","","","","","","","","","","","","","","","","","","","","","","","","","","","","","","","","","","","","","","","","",""
"","","","","","rdk","136","406123","0.0-5.0-1.0-1.0-0.0-3.0-0.0-0.0-1.6","2069","color_test","d","","false","[""d"",""k""]","k","3000","true","1","100","0","0","0","3","1","-1","2","300","300","[""hsl(0, 50%, 50%)"",""hsl(225, 50%, 50%)""]","[""hsl(225, 50%, 50%)"",""hsl(0, 50%, 50%)""]","0.5","0.52","0","circle","black","3","2","2","16.572580645161292","[8,20,14,17,16,16,17,16,17,16,17,16,17,17,16,17,16,18,16,19,15,16,17,18,16,16,17,18,16,17,16,17,18,15,18,16,16,17,16,17,18,15,17,16,17,16,17,16,16,17,16,17,16,17,18,16,15,18,16,16,17,17,17,16,18,16,17,17,16,17,16,17,17,17,17,16,17,18,16,17,17,15,16,17,17,16,17,17,16,17,17,16,16,16,17,18,16,17,16,16,17,18,15,18,15,18,17,15,17,17,16,17,18,16,16,17,17,16,17,17,16,19,16,16]","124","960","469","false","20","20","black","1","false","1","1","1920","938","k","staircase_color","","","","",""
"","","","","","html-keyboard-response","137","407561","0.0-5.0-1.0-1.0-0.0-3.0-0.0-0.0-2.6","null","","null","<p style='font-size: 60px; color: red'>错误!</p>","","","","","","","","","","","","","","","","","","","","","","","","","","","","","","","","","","","","","","","","","","","","","","","",""
"","","","","","html-keyboard-response","138","408997","0.0-5.0-1.0-1.0-0.0-3.0-0.0-0.0-0.7","null","fixation","null","<p style='font-size: 48px; color: white'>+</p >","","","","","","","","","","","","","","","","","","","","","","","","","","","","","","","","","","","","","","","","","","","","","","","",""
"","","","","","rdk","139","410875","0.0-5.0-1.0-1.0-0.0-3.0-0.0-0.0-1.7","941","color_test","d","","true","[""d"",""k""]","d","3000","true","1","100","0","0","0","3","1","-1","2","300","300","[""hsl(0, 50%, 50%)"",""hsl(225, 50%, 50%)""]","[""hsl(0, 50%, 50%)"",""hsl(225, 50%, 50%)""]","0.5","0.52","0","circle","black","3","2","2","16.553571428571427","[12,17,16,17,16,17,16,18,16,18,16,16,16,17,16,17,16,17,17,16,17,16,17,16,17,17,16,17,16,18,16,17,18,16,16,16,16,16,17,17,17,18,16,18,17,15,17,16,18,16,16,17,16,17,16,18]","56","960","469","false","20","20","black","1","false","1","1","1920","938","d","staircase_color","","","","",""
"","","","","","html-keyboard-response","140","412313","0.0-5.0-1.0-1.0-0.0-3.0-0.0-0.0-2.7","null","","null","<p style='font-size: 60px; color: green'>正确!</p>","","","","","","","","","","","","","","","","","","","","","","","","","","","","","","","","","","","","","","","","","","","","","","","",""
"","","","","","html-keyboard-response","141","413750","0.0-5.0-1.0-1.0-0.0-3.0-0.0-0.0-0.8","null","fixation","null","<p style='font-size: 48px; color: white'>+</p >","","","","","","","","","","","","","","","","","","","","","","","","","","","","","","","","","","","","","","","","","","","","","","","",""
"","","","","","rdk","142","415470","0.0-5.0-1.0-1.0-0.0-3.0-0.0-0.0-1.8","782","color_test","d","","true","[""d"",""k""]","d","3000","true","1","100","0","0","0","3","1","-1","2","300","300","[""hsl(0, 50%, 50%)"",""hsl(225, 50%, 50%)""]","[""hsl(0, 50%, 50%)"",""hsl(225, 50%, 50%)""]","0.5","0.52","0","circle","black","3","2","2","16.51063829787234","[9,16,17,16,17,17,16,17,18,16,16,17,18,16,16,18,16,17,18,16,15,17,17,16,17,17,16,16,18,18,16,16,19,15,17,16,18,16,18,15,17,16,17,16,17,17,16]","47","960","469","false","20","20","black","1","false","1","1","1920","938","d","staircase_color","","","","",""
"","","","","","html-keyboard-response","143","416906","0.0-5.0-1.0-1.0-0.0-3.0-0.0-0.0-2.8","null","","null","<p style='font-size: 60px; color: green'>正确!</p>","","","","","","","","","","","","","","","","","","","","","","","","","","","","","","","","","","","","","","","","","","","","","","","",""
"","","","","","html-keyboard-response","144","418344","0.0-5.0-1.0-1.0-0.0-3.0-0.0-0.0-0.9","null","fixation","null","<p style='font-size: 48px; color: white'>+</p >","","","","","","","","","","","","","","","","","","","","","","","","","","","","","","","","","","","","","","","","","","","","","","","",""
"","","","","","rdk","145","420333","0.0-5.0-1.0-1.0-0.0-3.0-0.0-0.0-1.9","1052","color_test","k","","true","[""d"",""k""]","k","3000","true","1","100","0","0","0","3","1","-1","2","300","300","[""hsl(0, 50%, 50%)"",""hsl(225, 50%, 50%)""]","[""hsl(225, 50%, 50%)"",""hsl(0, 50%, 50%)""]","0.5","0.52","0","circle","black","3","2","2","16.64516129032258","[18,15,18,16,15,17,17,17,17,16,17,18,16,17,17,16,17,18,16,17,15,17,17,16,17,17,16,17,18,17,16,16,18,16,17,18,15,17,17,16,16,17,17,16,17,16,18,15,17,18,15,17,16,17,17,16,17,16,17,18,16,15]","62","960","469","false","20","20","black","1","false","1","1","1920","938","k","staircase_color","","","","",""
"","","","","","html-keyboard-response","146","421770","0.0-5.0-1.0-1.0-0.0-3.0-0.0-0.0-2.9","null","","null","<p style='font-size: 60px; color: green'>正确!</p>","","","","","","","","","","","","","","","","","","","","","","","","","","","","","","","","","","","","","","","","","","","","","","","",""
"","","","","","html-keyboard-response","147","423208","0.0-5.0-1.0-1.0-0.0-3.0-0.0-0.0-0.10","null","fixation","null","<p style='font-size: 48px; color: white'>+</p >","","","","","","","","","","","","","","","","","","","","","","","","","","","","","","","","","","","","","","","","","","","","","","","",""
"","","","","","rdk","148","425086","0.0-5.0-1.0-1.0-0.0-3.0-0.0-0.0-1.10","940","color_test","d","","true","[""d"",""k""]","d","3000","true","1","100","0","0","0","3","1","-1","2","300","300","[""hsl(0, 50%, 50%)"",""hsl(225, 50%, 50%)""]","[""hsl(0, 50%, 50%)"",""hsl(225, 50%, 50%)""]","0.5","0.52","0","circle","black","3","2","2","16.625","[19,16,17,16,17,16,18,16,18,17,17,15,17,16,17,16,18,15,16,18,15,18,15,17,17,16,17,16,17,17,16,18,15,17,16,17,16,17,17,16,18,15,17,17,17,17,16,17,16,17,16,17,17,16,17,16]","56","960","469","false","20","20","black","1","false","1","1","1920","938","d","staircase_color","","","","",""
"","","","","","html-keyboard-response","149","426522","0.0-5.0-1.0-1.0-0.0-3.0-0.0-0.0-2.10","null","","null","<p style='font-size: 60px; color: green'>正确!</p>","","","","","","","","","","","","","","","","","","","","","","","","","","","","","","","","","","","","","","","","","","","","","","","",""
"","","","","","html-keyboard-response","150","427959","0.0-5.0-1.0-1.0-0.0-3.0-0.0-0.0-0.11","null","fixation","null","<p style='font-size: 48px; color: white'>+</p >","","","","","","","","","","","","","","","","","","","","","","","","","","","","","","","","","","","","","","","","","","","","","","","",""
"","","","","","rdk","151","429676","0.0-5.0-1.0-1.0-0.0-3.0-0.0-0.0-1.11","780","color_test","d","","false","[""d"",""k""]","k","3000","true","1","100","0","0","0","3","1","-1","2","300","300","[""hsl(0, 50%, 50%)"",""hsl(225, 50%, 50%)""]","[""hsl(225, 50%, 50%)"",""hsl(0, 50%, 50%)""]","0.5","0.52","0","circle","black","3","2","2","16.652173913043477","[15,17,17,16,17,17,18,16,17,16,16,17,18,16,18,16,18,16,18,16,16,18,16,17,17,16,15,17,16,17,17,16,17,16,16,17,17,17,17,16,18,16,17,17,15,17]","46","960","469","false","20","20","black","1","false","1","1","1920","938","k","staircase_color","","","","",""
"","","","","","html-keyboard-response","152","431113","0.0-5.0-1.0-1.0-0.0-3.0-0.0-0.0-2.11","null","","null","<p style='font-size: 60px; color: red'>错误!</p>","","","","","","","","","","","","","","","","","","","","","","","","","","","","","","","","","","","","","","","","","","","","","","","",""
"","","","","","html-keyboard-response","153","434057","0.0-5.0-1.0-1.0-0.0-3.0-0.0-1.0","null","","null","<p style='font-size: 35px; color: white'>您的正确率为： 67% 。平均反应时为：1318毫秒。</p>","","","","","","","","","","","","","","","","","","","","","","","","","","","","","","","","","","","","","","","","","","","","","","","",""
"","","","","","html-keyboard-response","154","435496","0.0-5.0-1.0-1.0-0.0-4.0-0.0-0.0-0.0","null","fixation","null","<p style='font-size: 48px; color: white'>+</p >","","","","","","","","","","","","","","","","","","","","","","","","","","","","","","","","","","","","","","","","","","","","","","","",""
"","","","","","rdk","155","438604","0.0-5.0-1.0-1.0-0.0-4.0-0.0-0.0-1.0","2171","color_test","k","","true","[""d"",""k""]","k","3000","true","1","100","0","0","0","3","1","-1","2","300","300","[""hsl(0, 50%, 50%)"",""hsl(225, 50%, 50%)""]","[""hsl(225, 50%, 50%)"",""hsl(0, 50%, 50%)""]","0.5","0.52","0","circle","black","3","2","2","16.653846153846153","[14,16,17,17,16,18,15,18,17,16,18,16,17,16,17,17,16,17,16,16,16,17,17,17,16,18,16,16,18,16,16,17,18,16,17,18,16,16,19,16,17,16,16,17,16,18,16,16,17,16,17,17,17,16,17,16,17,17,18,16,16,17,16,18,16,17,16,16,17,17,17,16,16,17,18,16,16,16,17,17,17,17,16,17,16,15,18,17,17,16,18,16,18,15,17,16,17,16,19,15,17,16,17,16,17,16,18,15,17,18,15,18,16,18,16,18,16,18,15,17,17,16,16,18,16,18,16,16,16,18]","130","960","469","false","20","20","black","1","false","1","1","1920","938","k","staircase_color","","","","",""
"","","","","","html-keyboard-response","156","440041","0.0-5.0-1.0-1.0-0.0-4.0-0.0-0.0-2.0","null","","null","<p style='font-size: 60px; color: green'>正确!</p>","","","","","","","","","","","","","","","","","","","","","","","","","","","","","","","","","","","","","","","","","","","","","","","",""
"","","","","","html-keyboard-response","157","441478","0.0-5.0-1.0-1.0-0.0-4.0-0.0-0.0-0.1","null","fixation","null","<p style='font-size: 48px; color: white'>+</p >","","","","","","","","","","","","","","","","","","","","","","","","","","","","","","","","","","","","","","","","","","","","","","","",""
"","","","","","rdk","158","444189","0.0-5.0-1.0-1.0-0.0-4.0-0.0-0.0-1.1","1774","color_test","k","","true","[""d"",""k""]","k","3000","true","1","100","0","0","0","3","1","-1","2","300","300","[""hsl(0, 50%, 50%)"",""hsl(225, 50%, 50%)""]","[""hsl(225, 50%, 50%)"",""hsl(0, 50%, 50%)""]","0.5","0.52","0","circle","black","3","2","2","16.59433962264151","[14,17,16,17,18,15,17,18,16,17,19,16,16,17,16,17,16,17,16,17,16,18,17,15,17,16,17,18,16,16,17,16,18,16,16,17,17,16,17,16,17,16,18,16,16,18,16,16,17,16,17,16,17,16,17,16,17,16,18,16,16,17,17,16,17,16,17,16,17,17,16,16,17,16,16,18,16,17,16,17,17,17,15,17,16,18,15,17,17,16,17,16,17,18,16,16,17,17,17,17,16,17,16,17,17,16]","106","960","469","false","20","20","black","1","false","1","1","1920","938","k","staircase_color","","","","",""
"","","","","","html-keyboard-response","159","445637","0.0-5.0-1.0-1.0-0.0-4.0-0.0-0.0-2.1","null","","null","<p style='font-size: 60px; color: green'>正确!</p>","","","","","","","","","","","","","","","","","","","","","","","","","","","","","","","","","","","","","","","","","","","","","","","",""
"","","","","","html-keyboard-response","160","447075","0.0-5.0-1.0-1.0-0.0-4.0-0.0-0.0-0.2","null","fixation","null","<p style='font-size: 48px; color: white'>+</p >","","","","","","","","","","","","","","","","","","","","","","","","","","","","","","","","","","","","","","","","","","","","","","","",""
"","","","","","rdk","161","448989","0.0-5.0-1.0-1.0-0.0-4.0-0.0-0.0-1.2","975","color_test","d","","true","[""d"",""k""]","d","3000","true","1","100","0","0","0","3","1","-1","2","300","300","[""hsl(0, 50%, 50%)"",""hsl(225, 50%, 50%)""]","[""hsl(0, 50%, 50%)"",""hsl(225, 50%, 50%)""]","0.5","0.52","0","circle","black","3","2","2","16.637931034482758","[16,18,16,18,17,15,17,21,12,18,16,16,19,15,18,16,18,15,16,18,16,17,17,17,16,16,17,16,18,16,18,15,17,16,16,17,18,16,16,18,16,18,15,17,16,17,17,16,17,16,17,16,17,17,17,15,17,16]","58","960","469","false","20","20","black","1","false","1","1","1920","938","d","staircase_color","","","","",""
"","","","","","html-keyboard-response","162","450425","0.0-5.0-1.0-1.0-0.0-4.0-0.0-0.0-2.2","null","","null","<p style='font-size: 60px; color: green'>正确!</p>","","","","","","","","","","","","","","","","","","","","","","","","","","","","","","","","","","","","","","","","","","","","","","","",""
"","","","","","html-keyboard-response","163","451862","0.0-5.0-1.0-1.0-0.0-4.0-0.0-0.0-0.3","null","fixation","null","<p style='font-size: 48px; color: white'>+</p >","","","","","","","","","","","","","","","","","","","","","","","","","","","","","","","","","","","","","","","","","","","","","","","",""
"","","","","","rdk","164","454476","0.0-5.0-1.0-1.0-0.0-4.0-0.0-0.0-1.3","1677","color_test","d","","true","[""d"",""k""]","d","3000","true","1","100","0","0","0","3","1","-1","2","300","300","[""hsl(0, 50%, 50%)"",""hsl(225, 50%, 50%)""]","[""hsl(0, 50%, 50%)"",""hsl(225, 50%, 50%)""]","0.5","0.52","0","circle","black","3","2","2","16.55","[13,15,18,16,18,16,18,17,17,16,18,15,18,15,17,17,17,16,16,17,17,17,16,17,17,17,16,16,17,16,17,17,16,16,18,16,17,16,16,17,17,16,17,17,16,16,18,15,17,16,17,16,17,16,17,17,16,17,16,17,16,17,16,17,16,17,16,17,17,17,15,17,17,16,17,16,17,16,18,16,17,16,17,16,17,16,17,16,17,16,18,17,16,16,17,16,17,16,17,16]","100","960","469","false","20","20","black","1","false","1","1","1920","938","d","staircase_color","","","","",""
"","","","","","html-keyboard-response","165","455913","0.0-5.0-1.0-1.0-0.0-4.0-0.0-0.0-2.3","null","","null","<p style='font-size: 60px; color: green'>正确!</p>","","","","","","","","","","","","","","","","","","","","","","","","","","","","","","","","","","","","","","","","","","","","","","","",""
"","","","","","html-keyboard-response","166","457350","0.0-5.0-1.0-1.0-0.0-4.0-0.0-0.0-0.4","null","fixation","null","<p style='font-size: 48px; color: white'>+</p >","","","","","","","","","","","","","","","","","","","","","","","","","","","","","","","","","","","","","","","","","","","","","","","",""
"","","","","","rdk","167","460188","0.0-5.0-1.0-1.0-0.0-4.0-0.0-0.0-1.4","1901","color_test","k","","true","[""d"",""k""]","k","3000","true","1","100","0","0","0","3","1","-1","2","300","300","[""hsl(0, 50%, 50%)"",""hsl(225, 50%, 50%)""]","[""hsl(225, 50%, 50%)"",""hsl(0, 50%, 50%)""]","0.5","0.52","0","circle","black","3","2","2","16.63157894736842","[10,17,17,17,16,17,17,18,16,16,17,18,16,17,19,17,14,18,16,18,14,17,17,18,14,17,18,17,16,15,18,15,17,18,16,16,17,17,17,16,17,16,16,17,17,16,18,15,16,17,16,18,17,16,18,18,17,15,17,17,16,16,17,18,15,19,15,18,18,14,17,16,17,16,19,15,17,18,16,18,17,15,18,15,18,14,17,17,16,17,18,17,16,17,16,17,17,16,17,16,17,16,17,17,18,15,17,16,18,16,16,17,16,19]","114","960","469","false","20","20","black","1","false","1","1","1920","938","k","staircase_color","","","","",""
"","","","","","html-keyboard-response","168","461624","0.0-5.0-1.0-1.0-0.0-4.0-0.0-0.0-2.4","null","","null","<p style='font-size: 60px; color: green'>正确!</p>","","","","","","","","","","","","","","","","","","","","","","","","","","","","","","","","","","","","","","","","","","","","","","","",""
"","","","","","html-keyboard-response","169","463062","0.0-5.0-1.0-1.0-0.0-4.0-0.0-0.0-0.5","null","fixation","null","<p style='font-size: 48px; color: white'>+</p >","","","","","","","","","","","","","","","","","","","","","","","","","","","","","","","","","","","","","","","","","","","","","","","",""
"","","","","","rdk","170","465275","0.0-5.0-1.0-1.0-0.0-4.0-0.0-0.0-1.5","1274","color_test","d","","true","[""d"",""k""]","d","3000","true","1","100","0","0","0","3","1","-1","2","300","300","[""hsl(0, 50%, 50%)"",""hsl(225, 50%, 50%)""]","[""hsl(0, 50%, 50%)"",""hsl(225, 50%, 50%)""]","0.5","0.52","0","circle","black","3","2","2","16.513157894736842","[12,17,16,17,17,17,16,18,15,17,17,16,17,16,17,17,15,17,17,17,16,17,16,16,17,16,17,17,16,17,17,17,16,17,17,16,16,16,18,16,16,17,16,16,18,16,16,17,16,17,16,17,18,16,16,16,17,17,16,17,16,17,16,17,17,16,17,17,16,17,17,17,15,17,16,17]","76","960","469","false","20","20","black","1","false","1","1","1920","938","d","staircase_color","","","","",""
"","","","","","html-keyboard-response","171","466712","0.0-5.0-1.0-1.0-0.0-4.0-0.0-0.0-2.5","null","","null","<p style='font-size: 60px; color: green'>正确!</p>","","","","","","","","","","","","","","","","","","","","","","","","","","","","","","","","","","","","","","","","","","","","","","","",""
"","","","","","html-keyboard-response","172","468150","0.0-5.0-1.0-1.0-0.0-4.0-0.0-0.0-0.6","null","fixation","null","<p style='font-size: 48px; color: white'>+</p >","","","","","","","","","","","","","","","","","","","","","","","","","","","","","","","","","","","","","","","","","","","","","","","",""
"","","","","","rdk","173","471020","0.0-5.0-1.0-1.0-0.0-4.0-0.0-0.0-1.6","1934","color_test","d","","true","[""d"",""k""]","d","3000","true","1","100","0","0","0","3","1","-1","2","300","300","[""hsl(0, 50%, 50%)"",""hsl(225, 50%, 50%)""]","[""hsl(0, 50%, 50%)"",""hsl(225, 50%, 50%)""]","0.5","0.52","0","circle","black","3","2","2","16.594827586206897","[13,16,18,15,17,18,16,16,18,16,17,18,15,17,16,18,16,16,18,16,17,17,15,17,18,16,18,15,17,17,16,16,18,16,16,16,17,16,17,18,16,17,17,17,17,15,17,16,17,18,16,17,17,16,17,18,17,16,16,17,16,17,16,18,16,17,16,16,17,17,16,16,17,16,17,17,17,15,17,16,18,15,17,17,17,17,16,15,17,17,16,18,17,16,16,18,15,18,16,18,16,16,17,16,18,15,18,17,15,17,16,17,16,17,16,17]","116","960","469","false","20","20","black","1","false","1","1","1920","938","d","staircase_color","","","","",""
"","","","","","html-keyboard-response","174","472456","0.0-5.0-1.0-1.0-0.0-4.0-0.0-0.0-2.6","null","","null","<p style='font-size: 60px; color: green'>正确!</p>","","","","","","","","","","","","","","","","","","","","","","","","","","","","","","","","","","","","","","","","","","","","","","","",""
"","","","","","html-keyboard-response","175","473892","0.0-5.0-1.0-1.0-0.0-4.0-0.0-0.0-0.7","null","fixation","null","<p style='font-size: 48px; color: white'>+</p >","","","","","","","","","","","","","","","","","","","","","","","","","","","","","","","","","","","","","","","","","","","","","","","",""
"","","","","","rdk","176","476476","0.0-5.0-1.0-1.0-0.0-4.0-0.0-0.0-1.7","1647","color_test","k","","true","[""d"",""k""]","k","3000","true","1","100","0","0","0","3","1","-1","2","300","300","[""hsl(0, 50%, 50%)"",""hsl(225, 50%, 50%)""]","[""hsl(225, 50%, 50%)"",""hsl(0, 50%, 50%)""]","0.5","0.52","0","circle","black","3","2","2","16.571428571428573","[16,16,18,16,16,16,18,16,16,17,17,16,17,17,16,17,16,17,16,18,18,16,18,16,14,17,17,16,17,16,18,16,18,15,17,16,17,16,16,17,17,17,15,17,16,17,16,18,15,17,18,16,16,18,16,16,16,17,16,16,17,16,16,17,18,17,15,17,18,16,16,16,18,16,16,17,16,16,17,16,18,15,17,16,17,16,17,17,16,18,16,17,17,16,17,18,15,17]","98","960","469","false","20","20","black","1","false","1","1","1920","938","k","staircase_color","","","","",""
"","","","","","html-keyboard-response","177","477923","0.0-5.0-1.0-1.0-0.0-4.0-0.0-0.0-2.7","null","","null","<p style='font-size: 60px; color: green'>正确!</p>","","","","","","","","","","","","","","","","","","","","","","","","","","","","","","","","","","","","","","","","","","","","","","","",""
"","","","","","html-keyboard-response","178","479359","0.0-5.0-1.0-1.0-0.0-4.0-0.0-0.0-0.8","null","fixation","null","<p style='font-size: 48px; color: white'>+</p >","","","","","","","","","","","","","","","","","","","","","","","","","","","","","","","","","","","","","","","","","","","","","","","",""
"","","","","","rdk","179","481196","0.0-5.0-1.0-1.0-0.0-4.0-0.0-0.0-1.8","899","color_test","d","","false","[""d"",""k""]","k","3000","true","1","100","0","0","0","3","1","-1","2","300","300","[""hsl(0, 50%, 50%)"",""hsl(225, 50%, 50%)""]","[""hsl(225, 50%, 50%)"",""hsl(0, 50%, 50%)""]","0.5","0.52","0","circle","black","3","2","2","16.67924528301887","[15,19,16,16,18,17,18,15,16,18,15,18,17,15,17,16,17,17,16,17,17,18,16,16,18,16,17,16,18,15,17,16,17,17,16,17,16,17,17,17,16,17,16,18,15,18,16,16,17,18,15,18,17]","53","960","469","false","20","20","black","1","false","1","1","1920","938","k","staircase_color","","","","",""
"","","","","","html-keyboard-response","180","482632","0.0-5.0-1.0-1.0-0.0-4.0-0.0-0.0-2.8","null","","null","<p style='font-size: 60px; color: red'>错误!</p>","","","","","","","","","","","","","","","","","","","","","","","","","","","","","","","","","","","","","","","","","","","","","","","",""
"","","","","","html-keyboard-response","181","484071","0.0-5.0-1.0-1.0-0.0-4.0-0.0-0.0-0.9","null","fixation","null","<p style='font-size: 48px; color: white'>+</p >","","","","","","","","","","","","","","","","","","","","","","","","","","","","","","","","","","","","","","","","","","","","","","","",""
"","","","","","rdk","182","487869","0.0-5.0-1.0-1.0-0.0-4.0-0.0-0.0-1.9","2860","color_test","k","","true","[""d"",""k""]","k","3000","true","1","100","0","0","0","3","1","-1","2","300","300","[""hsl(0, 50%, 50%)"",""hsl(225, 50%, 50%)""]","[""hsl(225, 50%, 50%)"",""hsl(0, 50%, 50%)""]","0.5","0.52","0","circle","black","3","2","2","16.596491228070175","[20,18,16,16,19,16,16,18,17,17,16,16,16,17,17,17,15,16,16,17,16,17,17,16,17,16,16,18,17,16,16,17,16,17,17,16,17,16,17,16,17,17,16,18,15,17,16,17,16,17,16,17,17,17,15,17,17,18,17,16,16,17,16,16,17,16,18,15,17,16,17,16,16,17,16,17,16,17,16,17,17,17,15,17,16,17,16,18,15,17,17,16,16,17,17,16,18,15,17,16,18,16,16,18,16,16,16,17,16,17,16,18,15,17,16,17,16,17,17,17,16,18,16,16,17,16,18,16,17,16,17,16,17,16,18,15,17,17,16,17,16,18,15,18,16,18,17,16,17,17,17,16,16,16,17,17,17,16,17,16,16,17,16,19,15,17,16,17,16,17,16]","171","960","469","false","20","20","black","1","false","1","1","1920","938","k","staircase_color","","","","",""
"","","","","","html-keyboard-response","183","489305","0.0-5.0-1.0-1.0-0.0-4.0-0.0-0.0-2.9","null","","null","<p style='font-size: 60px; color: green'>正确!</p>","","","","","","","","","","","","","","","","","","","","","","","","","","","","","","","","","","","","","","","","","","","","","","","",""
"","","","","","html-keyboard-response","184","490742","0.0-5.0-1.0-1.0-0.0-4.0-0.0-0.0-0.10","null","fixation","null","<p style='font-size: 48px; color: white'>+</p >","","","","","","","","","","","","","","","","","","","","","","","","","","","","","","","","","","","","","","","","","","","","","","","",""
"","","","","","rdk","185","492940","0.0-5.0-1.0-1.0-0.0-4.0-0.0-0.0-1.10","1261","color_test","d","","true","[""d"",""k""]","d","3000","true","1","100","0","0","0","3","1","-1","2","300","300","[""hsl(0, 50%, 50%)"",""hsl(225, 50%, 50%)""]","[""hsl(0, 50%, 50%)"",""hsl(225, 50%, 50%)""]","0.5","0.52","0","circle","black","3","2","2","16.626666666666665","[17,16,18,16,18,18,15,17,16,18,16,17,16,17,16,17,17,16,16,17,16,17,18,15,15,17,16,18,16,17,18,16,16,17,17,17,16,16,17,16,17,16,17,16,17,16,17,16,18,16,17,16,18,16,17,17,17,17,16,17,16,17,16,18,15,18,16,16,18,16,16,17,16,18,15]","75","960","469","false","20","20","black","1","false","1","1","1920","938","d","staircase_color","","","","",""
"","","","","","html-keyboard-response","186","494377","0.0-5.0-1.0-1.0-0.0-4.0-0.0-0.0-2.10","null","","null","<p style='font-size: 60px; color: green'>正确!</p>","","","","","","","","","","","","","","","","","","","","","","","","","","","","","","","","","","","","","","","","","","","","","","","",""
"","","","","","html-keyboard-response","187","495815","0.0-5.0-1.0-1.0-0.0-4.0-0.0-0.0-0.11","null","fixation","null","<p style='font-size: 48px; color: white'>+</p >","","","","","","","","","","","","","","","","","","","","","","","","","","","","","","","","","","","","","","","","","","","","","","","",""
"","","","","","rdk","188","499754","0.0-5.0-1.0-1.0-0.0-4.0-0.0-0.0-1.11","-1","color_test","","","false","[""d"",""k""]","d","3000","true","1","100","0","0","0","3","1","-1","2","300","300","[""hsl(0, 50%, 50%)"",""hsl(225, 50%, 50%)""]","[""hsl(0, 50%, 50%)"",""hsl(225, 50%, 50%)""]","0.5","0.52","0","circle","black","3","2","2","16.583333333333332","[11,16,16,17,16,18,16,18,16,18,16,17,16,17,16,17,18,15,17,17,15,17,18,16,16,17,16,17,16,17,16,18,15,17,16,17,17,16,16,17,16,17,16,18,16,18,15,18,17,16,16,17,16,17,17,16,16,17,18,16,16,17,18,16,17,17,16,18,16,17,17,16,16,17,17,17,16,16,17,16,17,16,18,17,16,17,16,16,16,18,15,17,16,18,15,18,17,16,17,16,18,15,16,17,18,16,17,15,18,15,17,17,17,17,16,18,15,18,15,17,18,16,17,16,17,17,17,17,17,16,17,17,16,17,17,17,16,16,18,15,17,16,16,17,18,16,18,16,18,16,16,16,17,17,17,15,17,16,17,16,17,18,16,16,17,17,17,15,17,16,17,16,17,16,17,16,17,16,16,17]","180","960","469","false","20","20","black","1","false","1","1","1920","938","d","staircase_color","","","","",""
"","","","","","html-keyboard-response","189","501191","0.0-5.0-1.0-1.0-0.0-4.0-0.0-0.0-2.11","null","","null","<p style='font-size: 60px; color: yellow'>太慢!</p>","","","","","","","","","","","","","","","","","","","","","","","","","","","","","","","","","","","","","","","","","","","","","","","",""
"","","","","","html-keyboard-response","190","504129","0.0-5.0-1.0-1.0-0.0-4.0-0.0-1.0","null","","null","<p style='font-size: 35px; color: white'>您的正确率为： 83% 。平均反应时为：1531毫秒。</p>","","","","","","","","","","","","","","","","","","","","","","","","","","","","","","","","","","","","","","","","","","","","","","","",""
"","","","","","html-keyboard-response","191","505567","0.0-5.0-1.0-1.0-0.0-5.0-0.0-0.0-0.0","null","fixation","null","<p style='font-size: 48px; color: white'>+</p >","","","","","","","","","","","","","","","","","","","","","","","","","","","","","","","","","","","","","","","","","","","","","","","",""
"","","","","","rdk","192","508139","0.0-5.0-1.0-1.0-0.0-5.0-0.0-0.0-1.0","1635","color_test","d","","true","[""d"",""k""]","d","3000","true","1","100","0","0","0","3","1","-1","2","300","300","[""hsl(0, 50%, 50%)"",""hsl(225, 50%, 50%)""]","[""hsl(0, 50%, 50%)"",""hsl(225, 50%, 50%)""]","0.5","0.6","0","circle","black","3","2","2","16.581632653061224","[10,15,17,16,17,18,16,18,15,17,16,17,18,16,18,15,17,16,18,17,15,16,17,16,17,17,16,17,17,16,17,16,17,17,16,17,16,17,18,15,17,16,17,18,17,15,17,16,17,18,16,17,16,18,16,17,18,15,17,17,16,18,17,16,16,17,17,16,17,16,17,17,15,17,17,18,16,17,16,17,16,17,16,17,17,16,17,18,17,15,18,15,17,17,18,16,16,17]","98","960","469","false","20","20","black","1","false","1","1","1920","938","d","staircase_color","","","","",""
"","","","","","html-keyboard-response","193","509576","0.0-5.0-1.0-1.0-0.0-5.0-0.0-0.0-2.0","null","","null","<p style='font-size: 60px; color: green'>正确!</p>","","","","","","","","","","","","","","","","","","","","","","","","","","","","","","","","","","","","","","","","","","","","","","","",""
"","","","","","html-keyboard-response","194","511012","0.0-5.0-1.0-1.0-0.0-5.0-0.0-0.0-0.1","null","fixation","null","<p style='font-size: 48px; color: white'>+</p >","","","","","","","","","","","","","","","","","","","","","","","","","","","","","","","","","","","","","","","","","","","","","","","",""
"","","","","","rdk","195","512737","0.0-5.0-1.0-1.0-0.0-5.0-0.0-0.0-1.1","787","color_test","k","","true","[""d"",""k""]","k","3000","true","1","100","0","0","0","3","1","-1","2","300","300","[""hsl(0, 50%, 50%)"",""hsl(225, 50%, 50%)""]","[""hsl(225, 50%, 50%)"",""hsl(0, 50%, 50%)""]","0.5","0.6","0","circle","black","3","2","2","16.53191489361702","[13,16,18,16,19,15,18,16,18,16,16,16,17,17,16,17,16,18,16,17,16,16,16,17,17,17,17,16,16,17,16,18,16,16,16,17,17,16,16,17,16,17,16,17,17,17,16]","47","960","469","false","20","20","black","1","false","1","1","1920","938","k","staircase_color","","","","",""
"","","","","","html-keyboard-response","196","514174","0.0-5.0-1.0-1.0-0.0-5.0-0.0-0.0-2.1","null","","null","<p style='font-size: 60px; color: green'>正确!</p>","","","","","","","","","","","","","","","","","","","","","","","","","","","","","","","","","","","","","","","","","","","","","","","",""
"","","","","","html-keyboard-response","197","515611","0.0-5.0-1.0-1.0-0.0-5.0-0.0-0.0-0.2","null","fixation","null","<p style='font-size: 48px; color: white'>+</p >","","","","","","","","","","","","","","","","","","","","","","","","","","","","","","","","","","","","","","","","","","","","","","","",""
"","","","","","rdk","198","517211","0.0-5.0-1.0-1.0-0.0-5.0-0.0-0.0-1.2","663","color_test","d","","true","[""d"",""k""]","d","3000","true","1","100","0","0","0","3","1","-1","2","300","300","[""hsl(0, 50%, 50%)"",""hsl(225, 50%, 50%)""]","[""hsl(0, 50%, 50%)"",""hsl(225, 50%, 50%)""]","0.5","0.6","0","circle","black","3","2","2","16.615384615384617","[15,17,18,17,17,16,16,18,15,18,16,17,16,17,17,16,17,16,17,16,17,16,17,16,17,17,16,17,17,16,16,18,15,17,16,18,16,17,17]","39","960","469","false","20","20","black","1","false","1","1","1920","938","d","staircase_color","","","","",""
"","","","","","html-keyboard-response","199","518648","0.0-5.0-1.0-1.0-0.0-5.0-0.0-0.0-2.2","null","","null","<p style='font-size: 60px; color: green'>正确!</p>","","","","","","","","","","","","","","","","","","","","","","","","","","","","","","","","","","","","","","","","","","","","","","","",""
"","","","","","html-keyboard-response","200","520085","0.0-5.0-1.0-1.0-0.0-5.0-0.0-0.0-0.3","null","fixation","null","<p style='font-size: 48px; color: white'>+</p >","","","","","","","","","","","","","","","","","","","","","","","","","","","","","","","","","","","","","","","","","","","","","","","",""
"","","","","","rdk","201","521707","0.0-5.0-1.0-1.0-0.0-5.0-0.0-0.0-1.3","685","color_test","k","","true","[""d"",""k""]","k","3000","true","1","100","0","0","0","3","1","-1","2","300","300","[""hsl(0, 50%, 50%)"",""hsl(225, 50%, 50%)""]","[""hsl(225, 50%, 50%)"",""hsl(0, 50%, 50%)""]","0.5","0.6","0","circle","black","3","2","2","16.414634146341463","[5,17,16,17,17,16,16,18,16,18,16,17,16,18,16,17,17,16,17,16,18,16,16,17,16,17,17,16,17,17,16,17,17,16,18,16,17,16,17,18,16]","41","960","469","false","20","20","black","1","false","1","1","1920","938","k","staircase_color","","","","",""
"","","","","","html-keyboard-response","202","523145","0.0-5.0-1.0-1.0-0.0-5.0-0.0-0.0-2.3","null","","null","<p style='font-size: 60px; color: green'>正确!</p>","","","","","","","","","","","","","","","","","","","","","","","","","","","","","","","","","","","","","","","","","","","","","","","",""
"","","","","","html-keyboard-response","203","524581","0.0-5.0-1.0-1.0-0.0-5.0-0.0-0.0-0.4","null","fixation","null","<p style='font-size: 48px; color: white'>+</p >","","","","","","","","","","","","","","","","","","","","","","","","","","","","","","","","","","","","","","","","","","","","","","","",""
"","","","","","rdk","204","526172","0.0-5.0-1.0-1.0-0.0-5.0-0.0-0.0-1.4","655","color_test","d","","false","[""d"",""k""]","k","3000","true","1","100","0","0","0","3","1","-1","2","300","300","[""hsl(0, 50%, 50%)"",""hsl(225, 50%, 50%)""]","[""hsl(225, 50%, 50%)"",""hsl(0, 50%, 50%)""]","0.5","0.6","0","circle","black","3","2","2","16.512820512820515","[12,18,17,17,16,16,17,17,17,16,17,17,16,16,17,17,16,17,16,16,17,16,17,17,16,16,18,16,17,16,18,16,17,16,17,16,17,16,17]","39","960","469","false","20","20","black","1","false","1","1","1920","938","k","staircase_color","","","","",""
"","","","","","html-keyboard-response","205","527609","0.0-5.0-1.0-1.0-0.0-5.0-0.0-0.0-2.4","null","","null","<p style='font-size: 60px; color: red'>错误!</p>","","","","","","","","","","","","","","","","","","","","","","","","","","","","","","","","","","","","","","","","","","","","","","","",""
"","","","","","html-keyboard-response","206","529045","0.0-5.0-1.0-1.0-0.0-5.0-0.0-0.0-0.5","null","fixation","null","<p style='font-size: 48px; color: white'>+</p >","","","","","","","","","","","","","","","","","","","","","","","","","","","","","","","","","","","","","","","","","","","","","","","",""
"","","","","","rdk","207","530702","0.0-5.0-1.0-1.0-0.0-5.0-0.0-0.0-1.5","719","color_test","d","","true","[""d"",""k""]","d","3000","true","1","100","0","0","0","3","1","-1","2","300","300","[""hsl(0, 50%, 50%)"",""hsl(225, 50%, 50%)""]","[""hsl(0, 50%, 50%)"",""hsl(225, 50%, 50%)""]","0.5","0.6","0","circle","black","3","2","2","16.627906976744185","[13,18,16,18,16,16,17,16,18,17,16,16,18,16,17,16,18,16,18,16,17,16,17,17,16,17,16,17,18,15,17,17,16,17,15,18,15,18,16,18,17,16,17]","43","960","469","false","20","20","black","1","false","1","1","1920","938","d","staircase_color","","","","",""
"","","","","","html-keyboard-response","208","532139","0.0-5.0-1.0-1.0-0.0-5.0-0.0-0.0-2.5","null","","null","<p style='font-size: 60px; color: green'>正确!</p>","","","","","","","","","","","","","","","","","","","","","","","","","","","","","","","","","","","","","","","","","","","","","","","",""
"","","","","","html-keyboard-response","209","533575","0.0-5.0-1.0-1.0-0.0-5.0-0.0-0.0-0.6","null","fixation","null","<p style='font-size: 48px; color: white'>+</p >","","","","","","","","","","","","","","","","","","","","","","","","","","","","","","","","","","","","","","","","","","","","","","","",""
"","","","","","rdk","210","536060","0.0-5.0-1.0-1.0-0.0-5.0-0.0-0.0-1.6","1547","color_test","d","","true","[""d"",""k""]","d","3000","true","1","100","0","0","0","3","1","-1","2","300","300","[""hsl(0, 50%, 50%)"",""hsl(225, 50%, 50%)""]","[""hsl(0, 50%, 50%)"",""hsl(225, 50%, 50%)""]","0.5","0.6","0","circle","black","3","2","2","16.641304347826086","[16,18,17,18,17,16,16,17,16,18,15,17,16,17,18,15,16,16,18,16,17,16,18,16,16,17,17,16,17,17,16,17,16,17,16,16,17,16,17,16,17,17,16,17,17,16,16,17,17,17,16,18,15,18,16,17,17,15,16,18,16,17,17,18,16,16,17,16,18,16,17,17,17,17,15,17,16,17,17,16,16,18,16,18,16,17,16,16,17,17,16,18]","92","960","469","false","20","20","black","1","false","1","1","1920","938","d","staircase_color","","","","",""
"","","","","","html-keyboard-response","211","537496","0.0-5.0-1.0-1.0-0.0-5.0-0.0-0.0-2.6","null","","null","<p style='font-size: 60px; color: green'>正确!</p>","","","","","","","","","","","","","","","","","","","","","","","","","","","","","","","","","","","","","","","","","","","","","","","",""
"","","","","","html-keyboard-response","212","538933","0.0-5.0-1.0-1.0-0.0-5.0-0.0-0.0-0.7","null","fixation","null","<p style='font-size: 48px; color: white'>+</p >","","","","","","","","","","","","","","","","","","","","","","","","","","","","","","","","","","","","","","","","","","","","","","","",""
"","","","","","rdk","213","541036","0.0-5.0-1.0-1.0-0.0-5.0-0.0-0.0-1.7","1167","color_test","k","","true","[""d"",""k""]","k","3000","true","1","100","0","0","0","3","1","-1","2","300","300","[""hsl(0, 50%, 50%)"",""hsl(225, 50%, 50%)""]","[""hsl(225, 50%, 50%)"",""hsl(0, 50%, 50%)""]","0.5","0.6","0","circle","black","3","2","2","16.514285714285716","[10,15,18,15,17,16,18,16,18,16,17,16,16,17,17,17,16,16,18,15,17,16,17,16,17,17,17,17,16,17,17,16,16,18,16,17,16,17,18,16,16,17,15,17,16,17,17,18,16,17,17,18,15,17,16,17,16,18,16,17,16,17,17,17,16,16,17,15,18,16]","70","960","469","false","20","20","black","1","false","1","1","1920","938","k","staircase_color","","","","",""
"","","","","","html-keyboard-response","214","542473","0.0-5.0-1.0-1.0-0.0-5.0-0.0-0.0-2.7","null","","null","<p style='font-size: 60px; color: green'>正确!</p>","","","","","","","","","","","","","","","","","","","","","","","","","","","","","","","","","","","","","","","","","","","","","","","",""
"","","","","","html-keyboard-response","215","543911","0.0-5.0-1.0-1.0-0.0-5.0-0.0-0.0-0.8","null","fixation","null","<p style='font-size: 48px; color: white'>+</p >","","","","","","","","","","","","","","","","","","","","","","","","","","","","","","","","","","","","","","","","","","","","","","","",""
"","","","","","rdk","216","545869","0.0-5.0-1.0-1.0-0.0-5.0-0.0-0.0-1.8","1021","color_test","d","","true","[""d"",""k""]","d","3000","true","1","100","0","0","0","3","1","-1","2","300","300","[""hsl(0, 50%, 50%)"",""hsl(225, 50%, 50%)""]","[""hsl(0, 50%, 50%)"",""hsl(225, 50%, 50%)""]","0.5","0.6","0","circle","black","3","2","2","16.508196721311474","[15,16,16,17,18,15,15,18,15,18,16,16,17,16,17,16,16,17,17,16,16,17,16,17,17,16,17,16,17,16,18,16,17,16,18,15,18,15,17,17,17,15,18,16,17,16,17,17,16,17,17,16,16,17,17,16,17,17,16,17,16]","61","960","469","false","20","20","black","1","false","1","1","1920","938","d","staircase_color","","","","",""
"","","","","","html-keyboard-response","217","547307","0.0-5.0-1.0-1.0-0.0-5.0-0.0-0.0-2.8","null","","null","<p style='font-size: 60px; color: green'>正确!</p>","","","","","","","","","","","","","","","","","","","","","","","","","","","","","","","","","","","","","","","","","","","","","","","",""
"","","","","","html-keyboard-response","218","548744","0.0-5.0-1.0-1.0-0.0-5.0-0.0-0.0-0.9","null","fixation","null","<p style='font-size: 48px; color: white'>+</p >","","","","","","","","","","","","","","","","","","","","","","","","","","","","","","","","","","","","","","","","","","","","","","","",""
"","","","","","rdk","219","551164","0.0-5.0-1.0-1.0-0.0-5.0-0.0-0.0-1.9","1483","color_test","k","","true","[""d"",""k""]","k","3000","true","1","100","0","0","0","3","1","-1","2","300","300","[""hsl(0, 50%, 50%)"",""hsl(225, 50%, 50%)""]","[""hsl(225, 50%, 50%)"",""hsl(0, 50%, 50%)""]","0.5","0.6","0","circle","black","3","2","2","16.602272727272727","[16,15,17,18,17,17,18,16,17,16,17,17,17,18,16,16,16,18,15,18,16,16,18,15,17,17,16,17,16,18,16,17,16,15,17,16,17,16,17,18,16,17,16,16,17,17,16,17,16,16,18,16,15,18,15,18,17,16,17,16,17,16,16,17,16,17,16,17,16,18,16,17,15,18,17,16,17,16,17,16,18,16,17,15,17,17,17,17]","88","960","469","false","20","20","black","1","false","1","1","1920","938","k","staircase_color","","","","",""
"","","","","","html-keyboard-response","220","552601","0.0-5.0-1.0-1.0-0.0-5.0-0.0-0.0-2.9","null","","null","<p style='font-size: 60px; color: green'>正确!</p>","","","","","","","","","","","","","","","","","","","","","","","","","","","","","","","","","","","","","","","","","","","","","","","",""
"","","","","","html-keyboard-response","221","554037","0.0-5.0-1.0-1.0-0.0-5.0-0.0-0.0-0.10","null","fixation","null","<p style='font-size: 48px; color: white'>+</p >","","","","","","","","","","","","","","","","","","","","","","","","","","","","","","","","","","","","","","","","","","","","","","","",""
"","","","","","rdk","222","556380","0.0-5.0-1.0-1.0-0.0-5.0-0.0-0.0-1.10","1406","color_test","k","","true","[""d"",""k""]","k","3000","true","1","100","0","0","0","3","1","-1","2","300","300","[""hsl(0, 50%, 50%)"",""hsl(225, 50%, 50%)""]","[""hsl(225, 50%, 50%)"",""hsl(0, 50%, 50%)""]","0.5","0.6","0","circle","black","3","2","2","16.607142857142858","[5,17,16,18,17,16,18,17,17,16,17,16,18,16,16,19,15,17,18,16,16,17,17,17,18,15,18,16,18,16,18,15,18,16,17,16,18,16,16,16,17,16,17,18,16,16,17,18,15,18,15,18,15,17,17,16,18,16,16,17,17,16,18,17,16,18,16,17,16,16,19,16,17,16,17,17,16,18,16,16,17,16,17,18]","84","960","469","false","20","20","black","1","false","1","1","1920","938","k","staircase_color","","","","",""
"","","","","","html-keyboard-response","223","557829","0.0-5.0-1.0-1.0-0.0-5.0-0.0-0.0-2.10","null","","null","<p style='font-size: 60px; color: green'>正确!</p>","","","","","","","","","","","","","","","","","","","","","","","","","","","","","","","","","","","","","","","","","","","","","","","",""
"","","","","","html-keyboard-response","224","559266","0.0-5.0-1.0-1.0-0.0-5.0-0.0-0.0-0.11","null","fixation","null","<p style='font-size: 48px; color: white'>+</p >","","","","","","","","","","","","","","","","","","","","","","","","","","","","","","","","","","","","","","","","","","","","","","","",""
