"success","timeout","failed_images","failed_audio","failed_video","trial_type","trial_index","time_elapsed","internal_node_id","rt","part","response","stimulus","correct","choices","correct_choice","trial_duration","response_ends_trial","number_of_apertures","number_of_dots","coherent_direction","coherence","opposite_coherence","dot_radius","dot_side_length","dot_life","move_distance","aperture_width","aperture_height","dot_color","dot_color_final","color_change_delay","target_color_proportion","motion_change_delay","dot_shape","background_color","RDK_type","aperture_type","reinsert_type","frame_rate","frame_rate_array","number_of_frames","aperture_center_x","aperture_center_y","fixation_cross","fixation_cross_width","fixation_cross_height","fixation_cross_color","fixation_cross_thickness","border","border_thickness","border_color","canvas_width","canvas_height","correct_response","data_label","task","difficulty","isMatch","association","label"
"true","false","[]","[]","[]","preload","0","4","0.0-0.0","","","","","","","","","","","","","","","","","","","","","","","","","","","","","","","","","","","","","","","","","","","","","","","","","","","",""
"true","","","","","fullscreen","1","1517162","0.0-1.0","1515598","fullScreen","","","","","","","","","","","","","","","","","","","","","","","","","","","","","","","","","","","","","","","","","","","","","","","","","",""
"","","","","","survey","2","1526484","0.0-2.0","8703","survey","{""sex"":""女"",""age"":20,""hands"":""右"",""color_blindness"":""都不是""}","","","","","","","","","","","","","","","","","","","","","","","","","","","","","","","","","","","","","","","","","","","","","","","","",""
"","","","","","survey-text","3","1538480","0.0-3.0","11419","color_test","{""Q0"":""BE""}","","","","","","","","","","","","","","","","","","","","","","","","","","","","","","","","","","","","","","","","","","","","","","","","",""
"","","","","","html-keyboard-response","4","1543858","0.0-4.0","4806","instruction_beginning"," ","
      <div style=""text-align: left; color: white"">
        <h3 style=""text-align: center; font-size: 30px; margin: 0;"">欢迎参与本实验</h3>
          <p>为充分保障您的权利，请确保您已经知晓并同意《参与实验同意书》以及《数据公开知情同意书》，</p>
          <p>如果您未见过上述内容，请咨询实验员 ，</p>
          <p>如果您选择继续实验，则表示您已经清楚两份知情同意书的内容并同意 。</p>
          <p>在整个实验中，您需要完成两项任务，具体的任务要求会在后面说明 ，</p>
          <p>请按空格键进入实验</p >
      </div>","","","","","","","","","","","","","","","","","","","","","","","","","","","","","","","","","","","","","","","","","","","","","","","",""
"","","","","","html-keyboard-response","5","1550704","0.0-5.0-0.0","6281","instruction_getThreshold"," ","
        <div style=""text-align: left; color: white; padding: 10px""> 
          <h3 style=""text-align: center; font-size: 30px; margin: 10px"">欢迎进入实验！</h3>
          <p>在正式开始前，我们将通过一个快速测试为您打造专属的难度水平。<p>
          <p>接下来，屏幕上会呈现一些运动的圆点，其中一定比例的点为 <span style=""color: hsl(0, 50%, 50%)"">红色</span> ，其余为 <span style=""color: hsl(225, 50%, 50%)"">蓝色</span>，</p>
          <p>您需要在3秒内判断 <span style=""font-weight: bold"">散点图的整体颜色（即大多数点的颜色）是红色还是蓝色 </span>：</p >
          <ul>
            <li>整体为 <span style=""color: hsl(0, 50%, 50%)"">红色</span>，请按键盘 <span style=""color: hsl(0, 50%, 50%)"">""D"" 键</span></li>
            <li>整体为 <span style=""color: hsl(225, 50%, 50%)"">蓝色</span>，请按键盘 <span style=""color: hsl(225, 50%, 50%)"">""k"" 键</span> </li>
          </ul>
          <p>如有疑问请向主试咨询，没有则按下空格键开始</p>
        </div>","","","","","","","","","","","","","","","","","","","","","","","","","","","","","","","","","","","","","","","","","","","","","","","",""
"","","","","","html-keyboard-response","6","1551766","0.0-5.0-1.0-1.0-0.0-0.0-0.0-0.0-0.0","null","fixation","null","<p style='font-size: 48px; color: white'>+</p >","","","","","","","","","","","","","","","","","","","","","","","","","","","","","","","","","","","","","","","","","","","","","","","",""
"","","","","","rdk","7","1555349","0.0-5.0-1.0-1.0-0.0-0.0-0.0-0.0-1.0","-1","color_test","","","false","[""d"",""k""]","k","3000","true","1","100","0","0","0","3","1","-1","2","300","300","[""hsl(0, 50%, 50%)"",""hsl(225, 50%, 50%)""]","[""hsl(225, 50%, 50%)"",""hsl(0, 50%, 50%)""]","0.5","0.58","0","circle","black","3","2","2","16.883333333333333","[8,16,17,17,17,17,17,17,17,17,17,17,17,17,17,17,17,17,16,17,17,16,17,17,16,17,17,16,16,17,17,17,17,17,17,17,17,17,17,17,17,17,17,17,17,17,17,17,17,17,17,17,17,17,17,17,17,17,17,17,17,17,17,17,17,17,17,17,17,17,17,17,17,17,17,17,17,17,17,17,17,17,17,17,17,17,17,17,17,17,17,17,17,17,17,17,17,17,17,17,17,17,16,17,17,16,17,17,17,17,17,17,17,17,17,17,17,17,17,17,17,17,17,17,17,17,17,17,17,17,16,17,17,17,17,17,17,17,17,17,17,17,17,17,17,17,17,17,17,17,17,17,17,16,17,17,17,17,17,17,17,17,17,17,17,17,17,17,17,17,17,17,16,16,17,17,17,17,17,17]","180","960","484.5","false","20","20","black","1","false","1","1","1920","969","k","staircase_color","","","","",""
"","","","","","html-keyboard-response","8","1556419","0.0-5.0-1.0-1.0-0.0-0.0-0.0-0.0-2.0","null","","null","<p style='font-size: 60px; color: yellow'>太慢!</p>","","","","","","","","","","","","","","","","","","","","","","","","","","","","","","","","","","","","","","","","","","","","","","","",""
"","","","","","html-keyboard-response","9","1557495","0.0-5.0-1.0-1.0-0.0-0.0-0.0-0.0-0.1","null","fixation","null","<p style='font-size: 48px; color: white'>+</p >","","","","","","","","","","","","","","","","","","","","","","","","","","","","","","","","","","","","","","","","","","","","","","","",""
"","","","","","rdk","10","1558664","0.0-5.0-1.0-1.0-0.0-0.0-0.0-0.0-1.1","607","color_test","d","","true","[""d"",""k""]","d","3000","true","1","100","0","0","0","3","1","-1","2","300","300","[""hsl(0, 50%, 50%)"",""hsl(225, 50%, 50%)""]","[""hsl(0, 50%, 50%)"",""hsl(225, 50%, 50%)""]","0.5","0.58","0","circle","black","3","2","2","16.666666666666668","[6,17,17,17,17,17,17,17,17,18,16,17,17,17,17,17,17,17,17,18,15,17,17,17,17,17,17,17,17,17,17,17,17,17,17,17]","36","960","484.5","false","20","20","black","1","false","1","1","1920","969","d","staircase_color","","","","",""
"","","","","","html-keyboard-response","11","1559735","0.0-5.0-1.0-1.0-0.0-0.0-0.0-0.0-2.1","null","","null","<p style='font-size: 60px; color: green'>正确!</p>","","","","","","","","","","","","","","","","","","","","","","","","","","","","","","","","","","","","","","","","","","","","","","","",""
"","","","","","html-keyboard-response","12","1560800","0.0-5.0-1.0-1.0-0.0-0.0-0.0-0.0-0.2","null","fixation","null","<p style='font-size: 48px; color: white'>+</p >","","","","","","","","","","","","","","","","","","","","","","","","","","","","","","","","","","","","","","","","","","","","","","","",""
"","","","","","rdk","13","1562272","0.0-5.0-1.0-1.0-0.0-0.0-0.0-0.0-1.2","915","color_test","d","","false","[""d"",""k""]","k","3000","true","1","100","0","0","0","3","1","-1","2","300","300","[""hsl(0, 50%, 50%)"",""hsl(225, 50%, 50%)""]","[""hsl(225, 50%, 50%)"",""hsl(0, 50%, 50%)""]","0.5","0.58","0","circle","black","3","2","2","16.745454545454546","[7,17,17,17,16,17,17,17,17,17,16,17,17,17,17,17,17,17,17,18,15,17,17,17,17,17,17,17,17,17,17,17,17,17,17,17,17,17,17,17,17,16,17,17,17,17,17,17,17,17,17,17,17,17,17]","55","960","484.5","false","20","20","black","1","false","1","1","1920","969","k","staircase_color","","","","",""
"","","","","","html-keyboard-response","14","1563343","0.0-5.0-1.0-1.0-0.0-0.0-0.0-0.0-2.2","null","","null","<p style='font-size: 60px; color: red'>错误!</p>","","","","","","","","","","","","","","","","","","","","","","","","","","","","","","","","","","","","","","","","","","","","","","","",""
"","","","","","html-keyboard-response","15","1564402","0.0-5.0-1.0-1.0-0.0-0.0-0.0-0.0-0.3","null","fixation","null","<p style='font-size: 48px; color: white'>+</p >","","","","","","","","","","","","","","","","","","","","","","","","","","","","","","","","","","","","","","","","","","","","","","","",""
"","","","","","rdk","16","1567063","0.0-5.0-1.0-1.0-0.0-0.0-0.0-0.0-1.3","2093","color_test","d","","true","[""d"",""k""]","d","3000","true","1","100","0","0","0","3","1","-1","2","300","300","[""hsl(0, 50%, 50%)"",""hsl(225, 50%, 50%)""]","[""hsl(0, 50%, 50%)"",""hsl(225, 50%, 50%)""]","0.5","0.58","0","circle","black","3","2","2","16.912","[11,16,17,17,17,17,17,17,17,16,17,17,17,17,17,17,17,17,17,17,17,17,17,17,17,17,17,17,17,17,17,17,17,17,17,17,17,17,17,17,17,17,17,17,17,17,17,17,17,17,17,17,17,17,17,17,17,17,16,17,17,17,17,17,17,17,17,17,17,17,17,17,17,17,17,17,16,17,17,17,17,17,17,17,17,17,17,17,17,17,17,17,17,17,17,17,17,17,17,17,17,17,17,17,17,17,17,17,17,17,17,17,17,17,17,17,17,17,16,17,17,17,17,17,17]","125","960","484.5","false","20","20","black","1","false","1","1","1920","969","d","staircase_color","","","","",""
"","","","","","html-keyboard-response","17","1568125","0.0-5.0-1.0-1.0-0.0-0.0-0.0-0.0-2.3","null","","null","<p style='font-size: 60px; color: green'>正确!</p>","","","","","","","","","","","","","","","","","","","","","","","","","","","","","","","","","","","","","","","","","","","","","","","",""
"","","","","","html-keyboard-response","18","1569201","0.0-5.0-1.0-1.0-0.0-0.0-0.0-0.0-0.4","null","fixation","null","<p style='font-size: 48px; color: white'>+</p >","","","","","","","","","","","","","","","","","","","","","","","","","","","","","","","","","","","","","","","","","","","","","","","",""
"","","","","","rdk","19","1571463","0.0-5.0-1.0-1.0-0.0-0.0-0.0-0.0-1.4","1706","color_test","k","","false","[""d"",""k""]","d","3000","true","1","100","0","0","0","3","1","-1","2","300","300","[""hsl(0, 50%, 50%)"",""hsl(225, 50%, 50%)""]","[""hsl(0, 50%, 50%)"",""hsl(225, 50%, 50%)""]","0.5","0.58","0","circle","black","3","2","2","16.794117647058822","[6,16,16,17,17,17,17,17,17,17,17,17,17,17,17,17,17,17,17,17,17,17,17,17,17,17,16,17,17,17,17,17,17,17,16,17,17,17,17,17,17,17,17,17,17,17,17,17,17,17,16,17,17,17,17,17,17,17,17,17,17,17,17,17,17,17,16,17,17,17,17,17,17,17,17,17,17,17,17,17,17,17,17,17,17,16,16,17,17,17,17,17,16,17,17,17,17,17,16,17,17,17]","102","960","484.5","false","20","20","black","1","false","1","1","1920","969","d","staircase_color","","","","",""
"","","","","","html-keyboard-response","20","1572541","0.0-5.0-1.0-1.0-0.0-0.0-0.0-0.0-2.4","null","","null","<p style='font-size: 60px; color: red'>错误!</p>","","","","","","","","","","","","","","","","","","","","","","","","","","","","","","","","","","","","","","","","","","","","","","","",""
"","","","","","html-keyboard-response","21","1573612","0.0-5.0-1.0-1.0-0.0-0.0-0.0-0.0-0.5","null","fixation","null","<p style='font-size: 48px; color: white'>+</p >","","","","","","","","","","","","","","","","","","","","","","","","","","","","","","","","","","","","","","","","","","","","","","","",""
"","","","","","rdk","22","1576488","0.0-5.0-1.0-1.0-0.0-0.0-0.0-0.0-1.5","2305","color_test","d","","true","[""d"",""k""]","d","3000","true","1","100","0","0","0","3","1","-1","2","300","300","[""hsl(0, 50%, 50%)"",""hsl(225, 50%, 50%)""]","[""hsl(0, 50%, 50%)"",""hsl(225, 50%, 50%)""]","0.5","0.58","0","circle","black","3","2","2","16.963768115942027","[16,17,17,17,16,17,17,17,17,17,17,17,17,17,17,17,17,17,17,17,17,17,17,17,17,17,17,17,17,17,17,17,17,17,17,17,17,17,17,17,17,17,17,17,17,17,17,17,17,17,17,17,17,16,17,17,17,17,17,17,17,16,17,17,17,17,17,17,17,17,17,17,17,17,17,17,17,17,17,17,17,17,17,17,17,17,17,17,17,17,17,17,17,17,17,17,17,17,17,17,17,17,17,17,17,17,17,17,16,17,17,17,17,17,17,17,17,17,17,17,17,17,17,17,17,17,17,17,17,17,17,17,17,17,17,17,17,17]","138","960","484.5","false","20","20","black","1","false","1","1","1920","969","d","staircase_color","","","","",""
"","","","","","html-keyboard-response","23","1577552","0.0-5.0-1.0-1.0-0.0-0.0-0.0-0.0-2.5","null","","null","<p style='font-size: 60px; color: green'>正确!</p>","","","","","","","","","","","","","","","","","","","","","","","","","","","","","","","","","","","","","","","","","","","","","","","",""
"","","","","","html-keyboard-response","24","1578620","0.0-5.0-1.0-1.0-0.0-0.0-0.0-0.0-0.6","null","fixation","null","<p style='font-size: 48px; color: white'>+</p >","","","","","","","","","","","","","","","","","","","","","","","","","","","","","","","","","","","","","","","","","","","","","","","",""
"","","","","","rdk","25","1580888","0.0-5.0-1.0-1.0-0.0-0.0-0.0-0.0-1.6","1711","color_test","k","","true","[""d"",""k""]","k","3000","true","1","100","0","0","0","3","1","-1","2","300","300","[""hsl(0, 50%, 50%)"",""hsl(225, 50%, 50%)""]","[""hsl(225, 50%, 50%)"",""hsl(0, 50%, 50%)""]","0.5","0.58","0","circle","black","3","2","2","16.728155339805824","[4,16,17,16,17,16,17,17,17,17,17,16,17,17,16,17,17,17,17,17,17,17,17,17,17,17,17,17,17,17,17,17,17,17,17,17,17,17,16,17,17,17,17,17,17,17,17,17,17,17,17,17,17,17,16,17,17,16,17,16,17,16,17,17,17,17,16,17,17,17,17,17,17,17,16,17,17,17,16,17,17,17,17,15,17,17,17,17,17,17,17,17,17,17,17,17,17,17,17,17,17,17,17]","103","960","484.5","false","20","20","black","1","false","1","1","1920","969","k","staircase_color","","","","",""
"","","","","","html-keyboard-response","26","1581959","0.0-5.0-1.0-1.0-0.0-0.0-0.0-0.0-2.6","null","","null","<p style='font-size: 60px; color: green'>正确!</p>","","","","","","","","","","","","","","","","","","","","","","","","","","","","","","","","","","","","","","","","","","","","","","","",""
"","","","","","html-keyboard-response","27","1583031","0.0-5.0-1.0-1.0-0.0-0.0-0.0-0.0-0.7","null","fixation","null","<p style='font-size: 48px; color: white'>+</p >","","","","","","","","","","","","","","","","","","","","","","","","","","","","","","","","","","","","","","","","","","","","","","","",""
"","","","","","rdk","28","1585792","0.0-5.0-1.0-1.0-0.0-0.0-0.0-0.0-1.7","2198","color_test","k","","true","[""d"",""k""]","k","3000","true","1","100","0","0","0","3","1","-1","2","300","300","[""hsl(0, 50%, 50%)"",""hsl(225, 50%, 50%)""]","[""hsl(225, 50%, 50%)"",""hsl(0, 50%, 50%)""]","0.5","0.58","0","circle","black","3","2","2","16.704545454545453","[1,14,17,17,17,17,17,17,17,17,17,17,17,17,17,17,15,17,17,17,16,17,17,17,17,17,17,17,16,15,17,17,17,17,17,17,17,17,17,17,17,15,17,17,17,17,16,17,17,17,17,15,17,17,17,17,17,17,16,17,17,17,17,17,17,17,17,15,17,17,17,17,17,17,17,17,17,17,16,17,17,17,17,17,17,17,17,17,17,17,16,17,17,17,17,17,17,17,15,17,17,17,17,17,17,17,17,17,17,17,17,17,17,17,17,16,17,17,17,17,17,17,17,17,16,17,17,17,17,17,17,17]","132","960","484.5","false","20","20","black","1","false","1","1","1920","969","k","staircase_color","","","","",""
"","","","","","html-keyboard-response","29","1586851","0.0-5.0-1.0-1.0-0.0-0.0-0.0-0.0-2.7","null","","null","<p style='font-size: 60px; color: green'>正确!</p>","","","","","","","","","","","","","","","","","","","","","","","","","","","","","","","","","","","","","","","","","","","","","","","",""
"","","","","","html-keyboard-response","30","1587930","0.0-5.0-1.0-1.0-0.0-0.0-0.0-0.0-0.8","null","fixation","null","<p style='font-size: 48px; color: white'>+</p >","","","","","","","","","","","","","","","","","","","","","","","","","","","","","","","","","","","","","","","","","","","","","","","",""
"","","","","","rdk","31","1591088","0.0-5.0-1.0-1.0-0.0-0.0-0.0-0.0-1.8","2591","color_test","k","","true","[""d"",""k""]","k","3000","true","1","100","0","0","0","3","1","-1","2","300","300","[""hsl(0, 50%, 50%)"",""hsl(225, 50%, 50%)""]","[""hsl(225, 50%, 50%)"",""hsl(0, 50%, 50%)""]","0.5","0.58","0","circle","black","3","2","2","16.826923076923077","[2,16,16,17,17,17,17,17,17,17,17,17,17,17,17,17,17,16,17,17,17,17,17,17,16,17,17,17,17,17,17,17,17,17,17,17,17,17,17,17,17,17,17,17,17,17,17,17,17,17,17,17,17,18,16,17,17,16,17,17,17,17,17,17,17,17,16,17,17,17,17,17,17,17,17,17,17,17,17,17,17,17,17,17,17,17,17,17,17,17,17,17,16,17,16,17,17,17,17,17,17,17,17,17,17,16,17,17,17,17,17,17,17,17,17,17,17,17,17,16,17,16,17,17,17,17,17,17,17,17,17,17,17,16,17,17,17,17,17,17,17,17,17,17,17,17,17,17,17,17,17,17,17,17,17,17]","156","960","484.5","false","20","20","black","1","false","1","1","1920","969","k","staircase_color","","","","",""
"","","","","","html-keyboard-response","32","1592159","0.0-5.0-1.0-1.0-0.0-0.0-0.0-0.0-2.8","null","","null","<p style='font-size: 60px; color: green'>正确!</p>","","","","","","","","","","","","","","","","","","","","","","","","","","","","","","","","","","","","","","","","","","","","","","","",""
"","","","","","html-keyboard-response","33","1593231","0.0-5.0-1.0-1.0-0.0-0.0-0.0-0.0-0.9","null","fixation","null","<p style='font-size: 48px; color: white'>+</p >","","","","","","","","","","","","","","","","","","","","","","","","","","","","","","","","","","","","","","","","","","","","","","","",""
"","","","","","rdk","34","1595456","0.0-5.0-1.0-1.0-0.0-0.0-0.0-0.0-1.9","1656","color_test","d","","true","[""d"",""k""]","d","3000","true","1","100","0","0","0","3","1","-1","2","300","300","[""hsl(0, 50%, 50%)"",""hsl(225, 50%, 50%)""]","[""hsl(0, 50%, 50%)"",""hsl(225, 50%, 50%)""]","0.5","0.58","0","circle","black","3","2","2","16.92929292929293","[14,17,17,17,17,17,17,17,17,17,17,17,17,17,17,17,17,16,16,17,17,17,17,17,17,17,17,17,17,17,17,17,17,17,17,17,17,17,17,17,17,17,17,17,17,17,17,17,17,17,17,17,17,17,17,17,15,17,17,17,17,17,17,17,17,17,17,17,17,17,17,17,17,17,17,17,17,17,17,17,17,17,17,17,17,17,17,17,17,17,17,17,17,17,17,17,17,17,17]","99","960","484.5","false","20","20","black","1","false","1","1","1920","969","d","staircase_color","","","","",""
"","","","","","html-keyboard-response","35","1596534","0.0-5.0-1.0-1.0-0.0-0.0-0.0-0.0-2.9","null","","null","<p style='font-size: 60px; color: green'>正确!</p>","","","","","","","","","","","","","","","","","","","","","","","","","","","","","","","","","","","","","","","","","","","","","","","",""
"","","","","","html-keyboard-response","36","1597608","0.0-5.0-1.0-1.0-0.0-0.0-0.0-0.0-0.10","null","fixation","null","<p style='font-size: 48px; color: white'>+</p >","","","","","","","","","","","","","","","","","","","","","","","","","","","","","","","","","","","","","","","","","","","","","","","",""
"","","","","","rdk","37","1599592","0.0-5.0-1.0-1.0-0.0-0.0-0.0-0.0-1.10","1424","color_test","k","","true","[""d"",""k""]","k","3000","true","1","100","0","0","0","3","1","-1","2","300","300","[""hsl(0, 50%, 50%)"",""hsl(225, 50%, 50%)""]","[""hsl(225, 50%, 50%)"",""hsl(0, 50%, 50%)""]","0.5","0.58","0","circle","black","3","2","2","16.941176470588236","[13,17,17,17,17,17,17,17,17,17,17,17,17,17,17,17,17,17,17,17,17,17,17,17,17,17,17,17,17,17,17,17,17,17,17,17,17,17,17,17,17,17,17,17,17,17,17,17,17,17,17,17,17,17,17,17,17,17,17,17,17,17,17,17,17,17,17,17,17,17,17,17,17,17,17,17,17,16,17,17,17,17,17,17,17]","85","960","484.5","false","20","20","black","1","false","1","1","1920","969","k","staircase_color","","","","",""
"","","","","","html-keyboard-response","38","1600667","0.0-5.0-1.0-1.0-0.0-0.0-0.0-0.0-2.10","null","","null","<p style='font-size: 60px; color: green'>正确!</p>","","","","","","","","","","","","","","","","","","","","","","","","","","","","","","","","","","","","","","","","","","","","","","","",""
"","","","","","html-keyboard-response","39","1601739","0.0-5.0-1.0-1.0-0.0-0.0-0.0-0.0-0.11","null","fixation","null","<p style='font-size: 48px; color: white'>+</p >","","","","","","","","","","","","","","","","","","","","","","","","","","","","","","","","","","","","","","","","","","","","","","","",""
"","","","","","rdk","40","1604424","0.0-5.0-1.0-1.0-0.0-0.0-0.0-0.0-1.11","2126","color_test","d","","true","[""d"",""k""]","d","3000","true","1","100","0","0","0","3","1","-1","2","300","300","[""hsl(0, 50%, 50%)"",""hsl(225, 50%, 50%)""]","[""hsl(0, 50%, 50%)"",""hsl(225, 50%, 50%)""]","0.5","0.58","0","circle","black","3","2","2","16.921259842519685","[15,17,17,17,17,17,17,17,17,17,17,17,17,17,17,17,18,16,17,17,17,16,17,17,17,17,17,17,17,17,17,17,17,16,17,17,16,17,17,17,17,17,17,17,17,17,16,17,17,17,17,17,17,17,17,17,17,17,17,17,16,17,17,17,17,17,17,17,17,17,17,17,17,17,17,17,17,17,17,17,17,17,17,17,17,17,17,17,17,17,17,17,17,17,17,17,17,17,17,17,17,17,17,17,17,17,17,17,15,17,17,17,17,17,17,17,17,17,17,17,17,17,18,15,17,17,17]","127","960","484.5","false","20","20","black","1","false","1","1","1920","969","d","staircase_color","","","","",""
"","","","","","html-keyboard-response","41","1605485","0.0-5.0-1.0-1.0-0.0-0.0-0.0-0.0-2.11","null","","null","<p style='font-size: 60px; color: green'>正确!</p>","","","","","","","","","","","","","","","","","","","","","","","","","","","","","","","","","","","","","","","","","","","","","","","",""
"","","","","","html-keyboard-response","42","1608056","0.0-5.0-1.0-1.0-0.0-0.0-0.0-1.0","null","","null","<p style='font-size: 35px; color: white'>您的正确率为： 75% 。平均反应时为：1611毫秒。</p>","","","","","","","","","","","","","","","","","","","","","","","","","","","","","","","","","","","","","","","","","","","","","","","",""
"","","","","","html-keyboard-response","43","1609123","0.0-5.0-1.0-1.0-0.0-1.0-0.0-0.0-0.0","null","fixation","null","<p style='font-size: 48px; color: white'>+</p >","","","","","","","","","","","","","","","","","","","","","","","","","","","","","","","","","","","","","","","","","","","","","","","",""
"","","","","","rdk","44","1611496","0.0-5.0-1.0-1.0-0.0-1.0-0.0-0.0-1.0","1811","color_test","k","","false","[""d"",""k""]","d","3000","true","1","100","0","0","0","3","1","-1","2","300","300","[""hsl(0, 50%, 50%)"",""hsl(225, 50%, 50%)""]","[""hsl(0, 50%, 50%)"",""hsl(225, 50%, 50%)""]","0.5","0.56","0","circle","black","3","2","2","16.935185185185187","[13,17,17,17,17,16,17,17,17,17,17,17,17,17,17,17,17,17,17,17,17,17,17,17,17,17,17,17,17,17,17,17,17,17,17,17,17,17,17,17,17,17,17,17,17,17,17,17,17,17,17,17,17,17,17,17,17,17,17,17,17,17,17,17,17,17,17,17,17,17,17,17,17,17,17,17,17,16,17,17,17,17,17,17,17,17,17,17,17,17,17,17,17,17,17,17,17,17,17,16,17,17,17,17,17,17,17,17]","108","960","484.5","false","20","20","black","1","false","1","1","1920","969","d","staircase_color","","","","",""
"","","","","","html-keyboard-response","45","1612558","0.0-5.0-1.0-1.0-0.0-1.0-0.0-0.0-2.0","null","","null","<p style='font-size: 60px; color: red'>错误!</p>","","","","","","","","","","","","","","","","","","","","","","","","","","","","","","","","","","","","","","","","","","","","","","","",""
"","","","","","html-keyboard-response","46","1613631","0.0-5.0-1.0-1.0-0.0-1.0-0.0-0.0-0.1","null","fixation","null","<p style='font-size: 48px; color: white'>+</p >","","","","","","","","","","","","","","","","","","","","","","","","","","","","","","","","","","","","","","","","","","","","","","","",""
"","","","","","rdk","47","1615801","0.0-5.0-1.0-1.0-0.0-1.0-0.0-0.0-1.1","1601","color_test","k","","false","[""d"",""k""]","d","3000","true","1","100","0","0","0","3","1","-1","2","300","300","[""hsl(0, 50%, 50%)"",""hsl(225, 50%, 50%)""]","[""hsl(0, 50%, 50%)"",""hsl(225, 50%, 50%)""]","0.5","0.56","0","circle","black","3","2","2","16.9375","[14,17,17,17,17,17,17,17,17,17,18,15,17,17,17,17,17,17,17,17,17,17,17,17,17,17,17,17,17,17,17,17,17,17,17,17,17,17,17,17,17,17,17,17,17,17,17,17,17,17,17,17,17,16,17,17,17,17,17,17,16,17,17,17,17,17,17,17,17,17,23,10,17,17,17,17,17,17,17,17,17,17,17,17,17,17,17,17,17,17,17,17,17,17,17,18]","96","960","484.5","false","20","20","black","1","false","1","1","1920","969","d","staircase_color","","","","",""
"","","","","","html-keyboard-response","48","1616870","0.0-5.0-1.0-1.0-0.0-1.0-0.0-0.0-2.1","null","","null","<p style='font-size: 60px; color: red'>错误!</p>","","","","","","","","","","","","","","","","","","","","","","","","","","","","","","","","","","","","","","","","","","","","","","","",""
"","","","","","html-keyboard-response","49","1617943","0.0-5.0-1.0-1.0-0.0-1.0-0.0-0.0-0.2","null","fixation","null","<p style='font-size: 48px; color: white'>+</p >","","","","","","","","","","","","","","","","","","","","","","","","","","","","","","","","","","","","","","","","","","","","","","","",""
"","","","","","rdk","50","1620720","0.0-5.0-1.0-1.0-0.0-1.0-0.0-0.0-1.2","2214","color_test","k","","true","[""d"",""k""]","k","3000","true","1","100","0","0","0","3","1","-1","2","300","300","[""hsl(0, 50%, 50%)"",""hsl(225, 50%, 50%)""]","[""hsl(225, 50%, 50%)"",""hsl(0, 50%, 50%)""]","0.5","0.56","0","circle","black","3","2","2","16.796992481203006","[8,18,17,17,17,17,17,17,17,17,17,17,17,16,17,17,17,17,17,17,17,17,17,17,17,17,17,16,17,17,17,17,17,17,17,17,17,17,17,17,17,17,17,17,17,17,17,17,17,17,17,17,17,17,16,17,17,17,17,17,16,17,17,16,17,17,16,17,17,17,17,17,17,17,17,17,17,17,17,17,17,17,17,17,16,17,17,17,16,17,16,17,17,17,17,17,17,16,17,17,16,17,17,16,17,16,17,17,16,17,17,17,17,16,17,17,16,16,17,17,16,17,17,17,17,16,17,17,17,17,17,17,17]","133","960","484.5","false","20","20","black","1","false","1","1","1920","969","k","staircase_color","","","","",""
"","","","","","html-keyboard-response","51","1621786","0.0-5.0-1.0-1.0-0.0-1.0-0.0-0.0-2.2","null","","null","<p style='font-size: 60px; color: green'>正确!</p>","","","","","","","","","","","","","","","","","","","","","","","","","","","","","","","","","","","","","","","","","","","","","","","",""
"","","","","","html-keyboard-response","52","1622858","0.0-5.0-1.0-1.0-0.0-1.0-0.0-0.0-0.3","null","fixation","null","<p style='font-size: 48px; color: white'>+</p >","","","","","","","","","","","","","","","","","","","","","","","","","","","","","","","","","","","","","","","","","","","","","","","",""
"","","","","","rdk","53","1625639","0.0-5.0-1.0-1.0-0.0-1.0-0.0-0.0-1.3","2209","color_test","k","","true","[""d"",""k""]","k","3000","true","1","100","0","0","0","3","1","-1","2","300","300","[""hsl(0, 50%, 50%)"",""hsl(225, 50%, 50%)""]","[""hsl(225, 50%, 50%)"",""hsl(0, 50%, 50%)""]","0.5","0.56","0","circle","black","3","2","2","16.781954887218046","[2,15,17,17,17,17,17,17,17,17,17,17,17,17,17,17,17,17,17,17,17,17,17,17,17,17,17,17,17,16,17,17,17,17,17,17,17,17,17,17,17,17,15,17,17,17,17,17,17,17,17,17,18,16,17,17,17,16,17,17,17,17,17,17,17,16,17,17,17,17,17,17,17,17,17,17,17,17,17,16,17,17,17,17,17,17,16,17,17,17,17,17,17,17,17,17,16,17,17,17,17,17,17,17,16,17,17,16,17,17,17,17,17,17,17,17,16,17,17,17,17,17,17,17,17,17,17,17,17,16,17,17,17]","133","960","484.5","false","20","20","black","1","false","1","1","1920","969","k","staircase_color","","","","",""
"","","","","","html-keyboard-response","54","1626711","0.0-5.0-1.0-1.0-0.0-1.0-0.0-0.0-2.3","null","","null","<p style='font-size: 60px; color: green'>正确!</p>","","","","","","","","","","","","","","","","","","","","","","","","","","","","","","","","","","","","","","","","","","","","","","","",""
"","","","","","html-keyboard-response","55","1627787","0.0-5.0-1.0-1.0-0.0-1.0-0.0-0.0-0.4","null","fixation","null","<p style='font-size: 48px; color: white'>+</p >","","","","","","","","","","","","","","","","","","","","","","","","","","","","","","","","","","","","","","","","","","","","","","","",""
"","","","","","rdk","56","1631350","0.0-5.0-1.0-1.0-0.0-1.0-0.0-0.0-1.4","-1","color_test","","","false","[""d"",""k""]","k","3000","true","1","100","0","0","0","3","1","-1","2","300","300","[""hsl(0, 50%, 50%)"",""hsl(225, 50%, 50%)""]","[""hsl(225, 50%, 50%)"",""hsl(0, 50%, 50%)""]","0.5","0.56","0","circle","black","3","2","2","16.788888888888888","[2,17,17,17,17,17,17,17,17,17,17,17,17,17,16,17,17,17,17,17,17,17,17,17,17,17,17,17,17,17,17,17,17,17,15,17,17,16,17,17,17,17,17,17,17,17,17,16,17,16,17,17,17,16,17,16,17,17,17,17,16,17,17,16,17,17,17,16,17,17,17,17,17,17,17,17,17,17,17,17,17,18,16,17,16,17,17,17,16,17,17,17,17,17,17,17,17,17,17,17,17,17,17,17,17,17,17,17,16,17,17,17,15,17,17,17,17,17,17,16,17,17,17,17,17,17,17,17,17,25,8,17,17,16,17,17,17,17,17,17,17,17,17,17,17,17,17,16,17,17,17,17,17,16,17,17,17,16,17,17,17,17,17,17,17,17,17,17,17,17,17,17,17,17,17,17,16,17,17,17]","180","960","484.5","false","20","20","black","1","false","1","1","1920","969","k","staircase_color","","","","",""
"","","","","","html-keyboard-response","57","1632434","0.0-5.0-1.0-1.0-0.0-1.0-0.0-0.0-2.4","null","","null","<p style='font-size: 60px; color: yellow'>太慢!</p>","","","","","","","","","","","","","","","","","","","","","","","","","","","","","","","","","","","","","","","","","","","","","","","",""
"","","","","","html-keyboard-response","58","1633511","0.0-5.0-1.0-1.0-0.0-1.0-0.0-0.0-0.5","null","fixation","null","<p style='font-size: 48px; color: white'>+</p >","","","","","","","","","","","","","","","","","","","","","","","","","","","","","","","","","","","","","","","","","","","","","","","",""
"","","","","","rdk","59","1635160","0.0-5.0-1.0-1.0-0.0-1.0-0.0-0.0-1.5","1093","color_test","k","","true","[""d"",""k""]","k","3000","true","1","100","0","0","0","3","1","-1","2","300","300","[""hsl(0, 50%, 50%)"",""hsl(225, 50%, 50%)""]","[""hsl(225, 50%, 50%)"",""hsl(0, 50%, 50%)""]","0.5","0.56","0","circle","black","3","2","2","16.907692307692308","[13,17,17,16,17,17,17,17,17,17,17,17,17,17,17,17,17,17,17,17,17,17,17,17,17,17,17,17,17,17,17,17,17,17,17,17,17,17,17,17,17,17,17,17,17,17,17,17,17,17,16,17,17,17,17,17,17,17,17,17,17,17,17,17,17]","65","960","484.5","false","20","20","black","1","false","1","1","1920","969","k","staircase_color","","","","",""
"","","","","","html-keyboard-response","60","1636220","0.0-5.0-1.0-1.0-0.0-1.0-0.0-0.0-2.5","null","","null","<p style='font-size: 60px; color: green'>正确!</p>","","","","","","","","","","","","","","","","","","","","","","","","","","","","","","","","","","","","","","","","","","","","","","","",""
"","","","","","html-keyboard-response","61","1637284","0.0-5.0-1.0-1.0-0.0-1.0-0.0-0.0-0.6","null","fixation","null","<p style='font-size: 48px; color: white'>+</p >","","","","","","","","","","","","","","","","","","","","","","","","","","","","","","","","","","","","","","","","","","","","","","","",""
"","","","","","rdk","62","1639034","0.0-5.0-1.0-1.0-0.0-1.0-0.0-0.0-1.6","1186","color_test","d","","true","[""d"",""k""]","d","3000","true","1","100","0","0","0","3","1","-1","2","300","300","[""hsl(0, 50%, 50%)"",""hsl(225, 50%, 50%)""]","[""hsl(0, 50%, 50%)"",""hsl(225, 50%, 50%)""]","0.5","0.56","0","circle","black","3","2","2","16.971830985915492","[15,17,17,17,17,17,17,17,17,17,17,17,17,17,17,17,17,17,17,17,17,17,17,17,17,17,17,17,17,17,17,17,17,17,17,17,17,17,17,17,17,17,17,17,17,17,17,17,17,17,17,17,17,17,17,17,17,17,17,17,17,17,17,17,17,17,17,17,17,17,17]","71","960","484.5","false","20","20","black","1","false","1","1","1920","969","d","staircase_color","","","","",""
"","","","","","html-keyboard-response","63","1640109","0.0-5.0-1.0-1.0-0.0-1.0-0.0-0.0-2.6","null","","null","<p style='font-size: 60px; color: green'>正确!</p>","","","","","","","","","","","","","","","","","","","","","","","","","","","","","","","","","","","","","","","","","","","","","","","",""
"","","","","","html-keyboard-response","64","1641194","0.0-5.0-1.0-1.0-0.0-1.0-0.0-0.0-0.7","null","fixation","null","<p style='font-size: 48px; color: white'>+</p >","","","","","","","","","","","","","","","","","","","","","","","","","","","","","","","","","","","","","","","","","","","","","","","",""
"","","","","","rdk","65","1643792","0.0-5.0-1.0-1.0-0.0-1.0-0.0-0.0-1.7","2027","color_test","k","","false","[""d"",""k""]","d","3000","true","1","100","0","0","0","3","1","-1","2","300","300","[""hsl(0, 50%, 50%)"",""hsl(225, 50%, 50%)""]","[""hsl(0, 50%, 50%)"",""hsl(225, 50%, 50%)""]","0.5","0.56","0","circle","black","3","2","2","16.958677685950413","[16,17,17,17,17,17,16,17,17,17,17,17,17,17,17,17,17,17,17,17,17,17,17,17,17,17,17,17,17,17,17,17,17,17,17,17,17,17,17,17,17,17,17,17,17,17,17,17,17,17,17,17,17,17,17,17,17,17,17,17,17,17,17,17,17,17,17,16,16,17,17,17,17,17,17,17,17,24,9,17,17,17,17,17,17,17,17,17,17,17,17,17,17,17,17,17,17,17,17,17,17,17,17,17,17,17,17,17,17,17,17,17,17,17,17,17,17,17,17,17,17]","121","960","484.5","false","20","20","black","1","false","1","1","1920","969","d","staircase_color","","","","",""
"","","","","","html-keyboard-response","66","1644860","0.0-5.0-1.0-1.0-0.0-1.0-0.0-0.0-2.7","null","","null","<p style='font-size: 60px; color: red'>错误!</p>","","","","","","","","","","","","","","","","","","","","","","","","","","","","","","","","","","","","","","","","","","","","","","","",""
"","","","","","html-keyboard-response","67","1645933","0.0-5.0-1.0-1.0-0.0-1.0-0.0-0.0-0.8","null","fixation","null","<p style='font-size: 48px; color: white'>+</p >","","","","","","","","","","","","","","","","","","","","","","","","","","","","","","","","","","","","","","","","","","","","","","","",""
"","","","","","rdk","68","1647576","0.0-5.0-1.0-1.0-0.0-1.0-0.0-0.0-1.8","1078","color_test","k","","true","[""d"",""k""]","k","3000","true","1","100","0","0","0","3","1","-1","2","300","300","[""hsl(0, 50%, 50%)"",""hsl(225, 50%, 50%)""]","[""hsl(225, 50%, 50%)"",""hsl(0, 50%, 50%)""]","0.5","0.56","0","circle","black","3","2","2","16.953125","[15,17,17,17,17,17,17,17,17,17,17,17,17,17,17,17,17,17,17,17,17,17,17,17,17,17,17,17,17,17,17,17,17,17,17,17,17,17,17,17,16,17,17,17,17,17,17,17,17,17,17,17,17,17,17,17,17,17,17,17,17,17,17,17]","64","960","484.5","false","20","20","black","1","false","1","1","1920","969","k","staircase_color","","","","",""
"","","","","","html-keyboard-response","69","1648634","0.0-5.0-1.0-1.0-0.0-1.0-0.0-0.0-2.8","null","","null","<p style='font-size: 60px; color: green'>正确!</p>","","","","","","","","","","","","","","","","","","","","","","","","","","","","","","","","","","","","","","","","","","","","","","","",""
"","","","","","html-keyboard-response","70","1649700","0.0-5.0-1.0-1.0-0.0-1.0-0.0-0.0-0.9","null","fixation","null","<p style='font-size: 48px; color: white'>+</p >","","","","","","","","","","","","","","","","","","","","","","","","","","","","","","","","","","","","","","","","","","","","","","","",""
"","","","","","rdk","71","1651969","0.0-5.0-1.0-1.0-0.0-1.0-0.0-0.0-1.9","1711","color_test","d","","true","[""d"",""k""]","d","3000","true","1","100","0","0","0","3","1","-1","2","300","300","[""hsl(0, 50%, 50%)"",""hsl(225, 50%, 50%)""]","[""hsl(0, 50%, 50%)"",""hsl(225, 50%, 50%)""]","0.5","0.56","0","circle","black","3","2","2","16.902912621359224","[7,17,17,17,17,17,17,17,17,17,17,17,17,17,17,17,17,17,17,17,17,17,17,17,17,17,17,17,17,17,17,17,17,17,17,17,17,17,17,17,17,17,17,17,17,17,17,17,17,17,17,17,17,17,17,17,17,17,17,17,17,17,17,17,17,17,17,17,17,17,17,17,17,17,17,17,17,17,17,17,17,17,17,17,17,17,17,17,17,17,17,17,17,17,17,17,17,17,17,17,17,17,17]","103","960","484.5","false","20","20","black","1","false","1","1","1920","969","d","staircase_color","","","","",""
"","","","","","html-keyboard-response","72","1653040","0.0-5.0-1.0-1.0-0.0-1.0-0.0-0.0-2.9","null","","null","<p style='font-size: 60px; color: green'>正确!</p>","","","","","","","","","","","","","","","","","","","","","","","","","","","","","","","","","","","","","","","","","","","","","","","",""
"","","","","","html-keyboard-response","73","1654102","0.0-5.0-1.0-1.0-0.0-1.0-0.0-0.0-0.10","null","fixation","null","<p style='font-size: 48px; color: white'>+</p >","","","","","","","","","","","","","","","","","","","","","","","","","","","","","","","","","","","","","","","","","","","","","","","",""
"","","","","","rdk","74","1655424","0.0-5.0-1.0-1.0-0.0-1.0-0.0-0.0-1.10","754","color_test","k","","true","[""d"",""k""]","k","3000","true","1","100","0","0","0","3","1","-1","2","300","300","[""hsl(0, 50%, 50%)"",""hsl(225, 50%, 50%)""]","[""hsl(225, 50%, 50%)"",""hsl(0, 50%, 50%)""]","0.5","0.56","0","circle","black","3","2","2","16.844444444444445","[10,17,17,17,17,17,17,17,17,17,17,17,17,17,17,17,17,17,17,17,17,17,17,17,17,17,17,17,17,17,17,17,17,17,17,17,17,17,17,17,17,17,17,17,17]","45","960","484.5","false","20","20","black","1","false","1","1","1920","969","k","staircase_color","","","","",""
"","","","","","html-keyboard-response","75","1656498","0.0-5.0-1.0-1.0-0.0-1.0-0.0-0.0-2.10","null","","null","<p style='font-size: 60px; color: green'>正确!</p>","","","","","","","","","","","","","","","","","","","","","","","","","","","","","","","","","","","","","","","","","","","","","","","",""
"","","","","","html-keyboard-response","76","1657575","0.0-5.0-1.0-1.0-0.0-1.0-0.0-0.0-0.11","null","fixation","null","<p style='font-size: 48px; color: white'>+</p >","","","","","","","","","","","","","","","","","","","","","","","","","","","","","","","","","","","","","","","","","","","","","","","",""
"","","","","","rdk","77","1659048","0.0-5.0-1.0-1.0-0.0-1.0-0.0-0.0-1.11","915","color_test","k","","false","[""d"",""k""]","d","3000","true","1","100","0","0","0","3","1","-1","2","300","300","[""hsl(0, 50%, 50%)"",""hsl(225, 50%, 50%)""]","[""hsl(0, 50%, 50%)"",""hsl(225, 50%, 50%)""]","0.5","0.56","0","circle","black","3","2","2","16.88888888888889","[13,17,17,17,17,17,17,17,17,17,17,17,17,17,17,17,17,17,17,17,17,17,17,16,17,17,17,17,17,17,17,17,17,17,17,17,17,17,17,17,17,16,17,17,17,17,17,17,17,17,17,17,17,17]","54","960","484.5","false","20","20","black","1","false","1","1","1920","969","d","staircase_color","","","","",""
"","","","","","html-keyboard-response","78","1660126","0.0-5.0-1.0-1.0-0.0-1.0-0.0-0.0-2.11","null","","null","<p style='font-size: 60px; color: red'>错误!</p>","","","","","","","","","","","","","","","","","","","","","","","","","","","","","","","","","","","","","","","","","","","","","","","",""
"","","","","","html-keyboard-response","79","1662701","0.0-5.0-1.0-1.0-0.0-1.0-0.0-1.0","null","","null","<p style='font-size: 35px; color: white'>您的正确率为： 58% 。平均反应时为：1383毫秒。</p>","","","","","","","","","","","","","","","","","","","","","","","","","","","","","","","","","","","","","","","","","","","","","","","",""
"","","","","","html-keyboard-response","80","1663771","0.0-5.0-1.0-1.0-0.0-2.0-0.0-0.0-0.0","null","fixation","null","<p style='font-size: 48px; color: white'>+</p >","","","","","","","","","","","","","","","","","","","","","","","","","","","","","","","","","","","","","","","","","","","","","","","",""
"","","","","","rdk","81","1665419","0.0-5.0-1.0-1.0-0.0-2.0-0.0-0.0-1.0","1084","color_test","k","","true","[""d"",""k""]","k","3000","true","1","100","0","0","0","3","1","-1","2","300","300","[""hsl(0, 50%, 50%)"",""hsl(225, 50%, 50%)""]","[""hsl(225, 50%, 50%)"",""hsl(0, 50%, 50%)""]","0.5","0.54","0","circle","black","3","2","2","16.93846153846154","[14,17,16,17,17,17,17,17,17,17,17,17,17,17,17,17,17,17,17,17,16,17,17,17,17,17,17,17,17,17,17,17,17,17,17,17,17,17,17,17,17,17,17,17,17,17,17,17,17,17,17,17,17,17,17,17,17,17,17,17,17,17,17,17,18]","65","960","484.5","false","20","20","black","1","false","1","1","1920","969","k","staircase_color","","","","",""
"","","","","","html-keyboard-response","82","1666494","0.0-5.0-1.0-1.0-0.0-2.0-0.0-0.0-2.0","null","","null","<p style='font-size: 60px; color: green'>正确!</p>","","","","","","","","","","","","","","","","","","","","","","","","","","","","","","","","","","","","","","","","","","","","","","","",""
"","","","","","html-keyboard-response","83","1667569","0.0-5.0-1.0-1.0-0.0-2.0-0.0-0.0-0.1","null","fixation","null","<p style='font-size: 48px; color: white'>+</p >","","","","","","","","","","","","","","","","","","","","","","","","","","","","","","","","","","","","","","","","","","","","","","","",""
"","","","","","rdk","84","1669032","0.0-5.0-1.0-1.0-0.0-2.0-0.0-0.0-1.1","893","color_test","k","","true","[""d"",""k""]","k","3000","true","1","100","0","0","0","3","1","-1","2","300","300","[""hsl(0, 50%, 50%)"",""hsl(225, 50%, 50%)""]","[""hsl(225, 50%, 50%)"",""hsl(0, 50%, 50%)""]","0.5","0.54","0","circle","black","3","2","2","16.77358490566038","[8,18,16,17,17,17,17,17,17,17,17,17,17,17,17,17,17,16,17,17,17,17,17,17,17,17,17,17,16,17,17,17,17,17,17,17,17,17,17,17,17,17,17,17,17,17,17,16,17,17,17,17,17]","53","960","484.5","false","20","20","black","1","false","1","1","1920","969","k","staircase_color","","","","",""
"","","","","","html-keyboard-response","85","1670102","0.0-5.0-1.0-1.0-0.0-2.0-0.0-0.0-2.1","null","","null","<p style='font-size: 60px; color: green'>正确!</p>","","","","","","","","","","","","","","","","","","","","","","","","","","","","","","","","","","","","","","","","","","","","","","","",""
"","","","","","html-keyboard-response","86","1671174","0.0-5.0-1.0-1.0-0.0-2.0-0.0-0.0-0.2","null","fixation","null","<p style='font-size: 48px; color: white'>+</p >","","","","","","","","","","","","","","","","","","","","","","","","","","","","","","","","","","","","","","","","","","","","","","","",""
"","","","","","rdk","87","1672968","0.0-5.0-1.0-1.0-0.0-2.0-0.0-0.0-1.2","1228","color_test","d","","true","[""d"",""k""]","d","3000","true","1","100","0","0","0","3","1","-1","2","300","300","[""hsl(0, 50%, 50%)"",""hsl(225, 50%, 50%)""]","[""hsl(0, 50%, 50%)"",""hsl(225, 50%, 50%)""]","0.5","0.54","0","circle","black","3","2","2","16.743243243243242","[7,17,17,17,16,17,17,17,17,17,17,16,17,17,17,17,16,17,17,17,17,17,17,17,17,17,17,17,17,17,17,17,17,16,17,17,17,17,17,17,17,17,17,17,17,17,17,17,17,17,17,17,17,16,17,17,16,17,17,17,17,16,17,17,17,17,17,17,17,17,16,16,17,17]","74","960","484.5","false","20","20","black","1","false","1","1","1920","969","d","staircase_color","","","","",""
"","","","","","html-keyboard-response","88","1674052","0.0-5.0-1.0-1.0-0.0-2.0-0.0-0.0-2.2","null","","null","<p style='font-size: 60px; color: green'>正确!</p>","","","","","","","","","","","","","","","","","","","","","","","","","","","","","","","","","","","","","","","","","","","","","","","",""
"","","","","","html-keyboard-response","89","1675135","0.0-5.0-1.0-1.0-0.0-2.0-0.0-0.0-0.3","null","fixation","null","<p style='font-size: 48px; color: white'>+</p >","","","","","","","","","","","","","","","","","","","","","","","","","","","","","","","","","","","","","","","","","","","","","","","",""
"","","","","","rdk","90","1677544","0.0-5.0-1.0-1.0-0.0-2.0-0.0-0.0-1.3","1843","color_test","d","","true","[""d"",""k""]","d","3000","true","1","100","0","0","0","3","1","-1","2","300","300","[""hsl(0, 50%, 50%)"",""hsl(225, 50%, 50%)""]","[""hsl(0, 50%, 50%)"",""hsl(225, 50%, 50%)""]","0.5","0.54","0","circle","black","3","2","2","16.918181818181818","[13,17,17,17,17,17,17,17,17,17,17,17,17,17,17,17,18,16,17,17,16,17,16,17,17,17,17,16,17,17,17,17,17,17,17,17,17,17,17,17,17,16,17,17,17,17,17,17,17,17,17,17,17,17,17,17,17,17,17,17,17,17,17,17,17,17,17,17,17,17,17,17,17,17,17,17,17,17,17,17,17,17,17,17,17,17,17,17,17,17,17,17,17,17,17,16,17,17,17,17,17,17,17,17,17,17,17,17,17,17]","110","960","484.5","false","20","20","black","1","false","1","1","1920","969","d","staircase_color","","","","",""
"","","","","","html-keyboard-response","91","1678603","0.0-5.0-1.0-1.0-0.0-2.0-0.0-0.0-2.3","null","","null","<p style='font-size: 60px; color: green'>正确!</p>","","","","","","","","","","","","","","","","","","","","","","","","","","","","","","","","","","","","","","","","","","","","","","","",""
"","","","","","html-keyboard-response","92","1679673","0.0-5.0-1.0-1.0-0.0-2.0-0.0-0.0-0.4","null","fixation","null","<p style='font-size: 48px; color: white'>+</p >","","","","","","","","","","","","","","","","","","","","","","","","","","","","","","","","","","","","","","","","","","","","","","","",""
"","","","","","rdk","93","1681976","0.0-5.0-1.0-1.0-0.0-2.0-0.0-0.0-1.4","1743","color_test","k","","true","[""d"",""k""]","k","3000","true","1","100","0","0","0","3","1","-1","2","300","300","[""hsl(0, 50%, 50%)"",""hsl(225, 50%, 50%)""]","[""hsl(225, 50%, 50%)"",""hsl(0, 50%, 50%)""]","0.5","0.54","0","circle","black","3","2","2","16.942307692307693","[14,17,17,17,17,18,16,17,17,17,17,17,17,17,17,17,17,17,17,17,17,17,17,17,17,17,17,17,17,17,17,17,17,17,17,17,17,17,17,17,17,17,17,17,17,17,17,17,17,17,17,17,17,17,17,17,17,16,17,17,17,17,17,17,17,17,17,17,17,17,17,17,16,17,17,17,17,17,17,17,17,17,17,17,17,17,16,17,17,17,17,17,17,17,17,17,17,17,17,17,17,17,17,17]","104","960","484.5","false","20","20","black","1","false","1","1","1920","969","k","staircase_color","","","","",""
"","","","","","html-keyboard-response","94","1683043","0.0-5.0-1.0-1.0-0.0-2.0-0.0-0.0-2.4","null","","null","<p style='font-size: 60px; color: green'>正确!</p>","","","","","","","","","","","","","","","","","","","","","","","","","","","","","","","","","","","","","","","","","","","","","","","",""
"","","","","","html-keyboard-response","95","1684118","0.0-5.0-1.0-1.0-0.0-2.0-0.0-0.0-0.5","null","fixation","null","<p style='font-size: 48px; color: white'>+</p >","","","","","","","","","","","","","","","","","","","","","","","","","","","","","","","","","","","","","","","","","","","","","","","",""
"","","","","","rdk","96","1685856","0.0-5.0-1.0-1.0-0.0-2.0-0.0-0.0-1.5","1182","color_test","d","","true","[""d"",""k""]","d","3000","true","1","100","0","0","0","3","1","-1","2","300","300","[""hsl(0, 50%, 50%)"",""hsl(225, 50%, 50%)""]","[""hsl(0, 50%, 50%)"",""hsl(225, 50%, 50%)""]","0.5","0.54","0","circle","black","3","2","2","16.732394366197184","[7,17,17,16,17,16,17,17,17,17,17,17,17,17,16,17,17,17,17,17,17,16,17,17,17,17,17,17,17,17,17,17,16,17,17,17,17,17,17,17,17,17,17,17,17,17,17,17,17,17,17,17,16,17,16,17,17,17,17,16,17,17,17,17,17,17,17,17,17,16,17]","71","960","484.5","false","20","20","black","1","false","1","1","1920","969","d","staircase_color","","","","",""
"","","","","","html-keyboard-response","97","1686929","0.0-5.0-1.0-1.0-0.0-2.0-0.0-0.0-2.5","null","","null","<p style='font-size: 60px; color: green'>正确!</p>","","","","","","","","","","","","","","","","","","","","","","","","","","","","","","","","","","","","","","","","","","","","","","","",""
"","","","","","html-keyboard-response","98","1687993","0.0-5.0-1.0-1.0-0.0-2.0-0.0-0.0-0.6","null","fixation","null","<p style='font-size: 48px; color: white'>+</p >","","","","","","","","","","","","","","","","","","","","","","","","","","","","","","","","","","","","","","","","","","","","","","","",""
"","","","","","rdk","99","1690808","0.0-5.0-1.0-1.0-0.0-2.0-0.0-0.0-1.6","2253","color_test","d","","true","[""d"",""k""]","d","3000","true","1","100","0","0","0","3","1","-1","2","300","300","[""hsl(0, 50%, 50%)"",""hsl(225, 50%, 50%)""]","[""hsl(0, 50%, 50%)"",""hsl(225, 50%, 50%)""]","0.5","0.54","0","circle","black","3","2","2","16.83703703703704","[7,17,17,17,16,17,17,17,17,17,17,17,17,17,17,17,17,17,17,17,17,17,16,17,17,17,17,17,17,17,17,17,17,17,17,17,17,16,17,17,17,17,16,17,17,17,17,17,17,17,17,16,17,17,17,17,17,17,17,17,17,16,17,17,17,16,17,17,17,17,17,17,17,17,17,17,17,17,17,16,17,17,17,17,17,17,17,17,17,17,17,17,17,17,17,17,17,17,17,17,17,17,17,17,17,16,17,17,17,17,17,15,17,17,17,17,17,17,17,17,17,17,17,17,17,17,17,17,17,17,17,17,17,16,17]","135","960","484.5","false","20","20","black","1","false","1","1","1920","969","d","staircase_color","","","","",""
"","","","","","html-keyboard-response","100","1691882","0.0-5.0-1.0-1.0-0.0-2.0-0.0-0.0-2.6","null","","null","<p style='font-size: 60px; color: green'>正确!</p>","","","","","","","","","","","","","","","","","","","","","","","","","","","","","","","","","","","","","","","","","","","","","","","",""
"","","","","","html-keyboard-response","101","1692942","0.0-5.0-1.0-1.0-0.0-2.0-0.0-0.0-0.7","null","fixation","null","<p style='font-size: 48px; color: white'>+</p >","","","","","","","","","","","","","","","","","","","","","","","","","","","","","","","","","","","","","","","","","","","","","","","",""
"","","","","","rdk","102","1694896","0.0-5.0-1.0-1.0-0.0-2.0-0.0-0.0-1.7","1383","color_test","k","","true","[""d"",""k""]","k","3000","true","1","100","0","0","0","3","1","-1","2","300","300","[""hsl(0, 50%, 50%)"",""hsl(225, 50%, 50%)""]","[""hsl(225, 50%, 50%)"",""hsl(0, 50%, 50%)""]","0.5","0.54","0","circle","black","3","2","2","16.710843373493976","[2,17,16,17,17,17,17,17,17,17,17,16,17,17,17,16,17,17,17,17,16,17,17,17,17,17,17,17,17,17,17,17,16,17,17,17,17,17,17,17,17,16,17,17,17,17,17,17,17,17,17,17,17,17,17,17,17,17,16,17,17,17,17,17,17,17,17,17,17,17,17,16,17,17,17,17,17,17,16,17,17,17,17]","83","960","484.5","false","20","20","black","1","false","1","1","1920","969","k","staircase_color","","","","",""
"","","","","","html-keyboard-response","103","1695961","0.0-5.0-1.0-1.0-0.0-2.0-0.0-0.0-2.7","null","","null","<p style='font-size: 60px; color: green'>正确!</p>","","","","","","","","","","","","","","","","","","","","","","","","","","","","","","","","","","","","","","","","","","","","","","","",""
"","","","","","html-keyboard-response","104","1697036","0.0-5.0-1.0-1.0-0.0-2.0-0.0-0.0-0.8","null","fixation","null","<p style='font-size: 48px; color: white'>+</p >","","","","","","","","","","","","","","","","","","","","","","","","","","","","","","","","","","","","","","","","","","","","","","","",""
"","","","","","rdk","105","1698904","0.0-5.0-1.0-1.0-0.0-2.0-0.0-0.0-1.8","1297","color_test","d","","false","[""d"",""k""]","k","3000","true","1","100","0","0","0","3","1","-1","2","300","300","[""hsl(0, 50%, 50%)"",""hsl(225, 50%, 50%)""]","[""hsl(225, 50%, 50%)"",""hsl(0, 50%, 50%)""]","0.5","0.54","0","circle","black","3","2","2","16.705128205128204","[7,17,16,17,17,17,17,17,17,17,16,17,15,17,22,11,17,17,17,17,17,17,17,17,17,17,17,17,17,15,17,17,17,17,17,17,17,17,17,16,17,17,17,17,17,17,17,17,17,17,17,17,17,16,17,16,17,16,17,17,17,16,17,17,17,17,17,17,17,17,17,17,17,17,17,16,17,17]","78","960","484.5","false","20","20","black","1","false","1","1","1920","969","k","staircase_color","","","","",""
"","","","","","html-keyboard-response","106","1699986","0.0-5.0-1.0-1.0-0.0-2.0-0.0-0.0-2.8","null","","null","<p style='font-size: 60px; color: red'>错误!</p>","","","","","","","","","","","","","","","","","","","","","","","","","","","","","","","","","","","","","","","","","","","","","","","",""
"","","","","","html-keyboard-response","107","1701068","0.0-5.0-1.0-1.0-0.0-2.0-0.0-0.0-0.9","null","fixation","null","<p style='font-size: 48px; color: white'>+</p >","","","","","","","","","","","","","","","","","","","","","","","","","","","","","","","","","","","","","","","","","","","","","","","",""
"","","","","","rdk","108","1702560","0.0-5.0-1.0-1.0-0.0-2.0-0.0-0.0-1.9","928","color_test","k","","true","[""d"",""k""]","k","3000","true","1","100","0","0","0","3","1","-1","2","300","300","[""hsl(0, 50%, 50%)"",""hsl(225, 50%, 50%)""]","[""hsl(225, 50%, 50%)"",""hsl(0, 50%, 50%)""]","0.5","0.54","0","circle","black","3","2","2","16.944444444444443","[16,17,17,17,17,17,17,16,17,17,17,17,17,17,17,17,17,17,17,17,17,17,17,17,17,17,17,17,17,17,17,17,17,17,17,17,17,17,17,17,17,17,17,17,17,16,17,17,17,17,17,17,17,17]","54","960","484.5","false","20","20","black","1","false","1","1","1920","969","k","staircase_color","","","","",""
"","","","","","html-keyboard-response","109","1703634","0.0-5.0-1.0-1.0-0.0-2.0-0.0-0.0-2.9","null","","null","<p style='font-size: 60px; color: green'>正确!</p>","","","","","","","","","","","","","","","","","","","","","","","","","","","","","","","","","","","","","","","","","","","","","","","",""
"","","","","","html-keyboard-response","110","1704716","0.0-5.0-1.0-1.0-0.0-2.0-0.0-0.0-0.10","null","fixation","null","<p style='font-size: 48px; color: white'>+</p >","","","","","","","","","","","","","","","","","","","","","","","","","","","","","","","","","","","","","","","","","","","","","","","",""
"","","","","","rdk","111","1706619","0.0-5.0-1.0-1.0-0.0-2.0-0.0-0.0-1.10","1339","color_test","d","","true","[""d"",""k""]","d","3000","true","1","100","0","0","0","3","1","-1","2","300","300","[""hsl(0, 50%, 50%)"",""hsl(225, 50%, 50%)""]","[""hsl(0, 50%, 50%)"",""hsl(225, 50%, 50%)""]","0.5","0.54","0","circle","black","3","2","2","16.74074074074074","[1,18,16,17,17,17,17,17,17,17,17,17,17,17,16,17,17,16,17,17,17,16,17,17,17,17,17,17,17,16,17,17,17,17,17,17,17,17,17,17,17,17,17,17,17,17,17,17,17,17,17,17,17,16,17,17,17,17,17,17,17,17,17,17,17,17,16,17,17,17,17,17,17,17,17,17,17,17,17,17,18]","81","960","484.5","false","20","20","black","1","false","1","1","1920","969","d","staircase_color","","","","",""
"","","","","","html-keyboard-response","112","1707676","0.0-5.0-1.0-1.0-0.0-2.0-0.0-0.0-2.10","null","","null","<p style='font-size: 60px; color: green'>正确!</p>","","","","","","","","","","","","","","","","","","","","","","","","","","","","","","","","","","","","","","","","","","","","","","","",""
"","","","","","html-keyboard-response","113","1708744","0.0-5.0-1.0-1.0-0.0-2.0-0.0-0.0-0.11","null","fixation","null","<p style='font-size: 48px; color: white'>+</p >","","","","","","","","","","","","","","","","","","","","","","","","","","","","","","","","","","","","","","","","","","","","","","","",""
"","","","","","rdk","114","1710761","0.0-5.0-1.0-1.0-0.0-2.0-0.0-0.0-1.11","1455","color_test","d","","true","[""d"",""k""]","d","3000","true","1","100","0","0","0","3","1","-1","2","300","300","[""hsl(0, 50%, 50%)"",""hsl(225, 50%, 50%)""]","[""hsl(0, 50%, 50%)"",""hsl(225, 50%, 50%)""]","0.5","0.54","0","circle","black","3","2","2","16.82758620689655","[9,17,17,17,17,17,17,17,17,17,17,17,17,17,17,17,17,17,17,17,17,17,17,17,17,17,17,17,17,15,17,17,17,17,17,17,17,17,17,17,17,17,17,17,17,16,17,16,17,17,17,17,17,17,16,17,17,17,17,17,17,17,17,17,16,17,16,17,17,17,17,17,17,17,17,17,17,17,17,17,17,17,17,17,17,17,17]","87","960","484.5","false","20","20","black","1","false","1","1","1920","969","d","staircase_color","","","","",""
"","","","","","html-keyboard-response","115","1711836","0.0-5.0-1.0-1.0-0.0-2.0-0.0-0.0-2.11","null","","null","<p style='font-size: 60px; color: green'>正确!</p>","","","","","","","","","","","","","","","","","","","","","","","","","","","","","","","","","","","","","","","","","","","","","","","",""
"","","","","","html-keyboard-response","116","1714412","0.0-5.0-1.0-1.0-0.0-2.0-0.0-1.0","null","","null","<p style='font-size: 35px; color: white'>您的正确率为： 92% 。平均反应时为：1386毫秒。</p>","","","","","","","","","","","","","","","","","","","","","","","","","","","","","","","","","","","","","","","","","","","","","","","",""
"","","","","","html-keyboard-response","117","1715481","0.0-5.0-1.0-1.0-0.0-3.0-0.0-0.0-0.0","null","fixation","null","<p style='font-size: 48px; color: white'>+</p >","","","","","","","","","","","","","","","","","","","","","","","","","","","","","","","","","","","","","","","","","","","","","","","",""
"","","","","","rdk","118","1716953","0.0-5.0-1.0-1.0-0.0-3.0-0.0-0.0-1.0","905","color_test","d","","false","[""d"",""k""]","k","3000","true","1","100","0","0","0","3","1","-1","2","300","300","[""hsl(0, 50%, 50%)"",""hsl(225, 50%, 50%)""]","[""hsl(225, 50%, 50%)"",""hsl(0, 50%, 50%)""]","0.5","0.52","0","circle","black","3","2","2","16.90740740740741","[16,16,17,17,17,17,17,17,17,17,17,17,17,17,17,17,16,17,16,17,17,17,17,17,17,17,17,17,17,17,17,17,17,17,17,17,17,17,17,17,17,17,17,17,16,17,18,16,17,17,17,17,17,17]","54","960","484.5","false","20","20","black","1","false","1","1","1920","969","k","staircase_color","","","","",""
"","","","","","html-keyboard-response","119","1718020","0.0-5.0-1.0-1.0-0.0-3.0-0.0-0.0-2.0","null","","null","<p style='font-size: 60px; color: red'>错误!</p>","","","","","","","","","","","","","","","","","","","","","","","","","","","","","","","","","","","","","","","","","","","","","","","",""
"","","","","","html-keyboard-response","120","1719092","0.0-5.0-1.0-1.0-0.0-3.0-0.0-0.0-0.1","null","fixation","null","<p style='font-size: 48px; color: white'>+</p >","","","","","","","","","","","","","","","","","","","","","","","","","","","","","","","","","","","","","","","","","","","","","","","",""
"","","","","","rdk","121","1720425","0.0-5.0-1.0-1.0-0.0-3.0-0.0-0.0-1.1","768","color_test","k","","true","[""d"",""k""]","k","3000","true","1","100","0","0","0","3","1","-1","2","300","300","[""hsl(0, 50%, 50%)"",""hsl(225, 50%, 50%)""]","[""hsl(225, 50%, 50%)"",""hsl(0, 50%, 50%)""]","0.5","0.52","0","circle","black","3","2","2","16.695652173913043","[8,17,17,16,17,17,17,17,17,17,17,17,17,16,17,17,17,17,17,17,17,17,17,17,17,17,17,16,17,17,17,17,17,17,17,17,16,17,17,17,17,17,17,17,16,17]","46","960","484.5","false","20","20","black","1","false","1","1","1920","969","k","staircase_color","","","","",""
"","","","","","html-keyboard-response","122","1721492","0.0-5.0-1.0-1.0-0.0-3.0-0.0-0.0-2.1","null","","null","<p style='font-size: 60px; color: green'>正确!</p>","","","","","","","","","","","","","","","","","","","","","","","","","","","","","","","","","","","","","","","","","","","","","","","",""
"","","","","","html-keyboard-response","123","1722554","0.0-5.0-1.0-1.0-0.0-3.0-0.0-0.0-0.2","null","fixation","null","<p style='font-size: 48px; color: white'>+</p >","","","","","","","","","","","","","","","","","","","","","","","","","","","","","","","","","","","","","","","","","","","","","","","",""
"","","","","","rdk","124","1724520","0.0-5.0-1.0-1.0-0.0-3.0-0.0-0.0-1.2","1404","color_test","d","","true","[""d"",""k""]","d","3000","true","1","100","0","0","0","3","1","-1","2","300","300","[""hsl(0, 50%, 50%)"",""hsl(225, 50%, 50%)""]","[""hsl(0, 50%, 50%)"",""hsl(225, 50%, 50%)""]","0.5","0.52","0","circle","black","3","2","2","16.964285714285715","[16,17,17,17,17,17,17,17,17,17,17,17,17,17,17,17,17,17,17,17,17,17,17,17,17,17,17,17,17,17,17,17,17,17,17,17,17,17,17,17,17,17,17,17,17,17,17,17,17,17,17,17,17,17,17,17,17,17,17,17,17,17,17,17,17,16,16,17,17,17,17,17,17,17,17,17,17,17,17,17,17,17,17,17]","84","960","484.5","false","20","20","black","1","false","1","1","1920","969","d","staircase_color","","","","",""
"","","","","","html-keyboard-response","125","1725577","0.0-5.0-1.0-1.0-0.0-3.0-0.0-0.0-2.2","null","","null","<p style='font-size: 60px; color: green'>正确!</p>","","","","","","","","","","","","","","","","","","","","","","","","","","","","","","","","","","","","","","","","","","","","","","","",""
"","","","","","html-keyboard-response","126","1726650","0.0-5.0-1.0-1.0-0.0-3.0-0.0-0.0-0.3","null","fixation","null","<p style='font-size: 48px; color: white'>+</p >","","","","","","","","","","","","","","","","","","","","","","","","","","","","","","","","","","","","","","","","","","","","","","","",""
"","","","","","rdk","127","1728287","0.0-5.0-1.0-1.0-0.0-3.0-0.0-0.0-1.3","1074","color_test","d","","true","[""d"",""k""]","d","3000","true","1","100","0","0","0","3","1","-1","2","300","300","[""hsl(0, 50%, 50%)"",""hsl(225, 50%, 50%)""]","[""hsl(0, 50%, 50%)"",""hsl(225, 50%, 50%)""]","0.5","0.52","0","circle","black","3","2","2","16.70769230769231","[2,16,17,17,17,17,17,17,17,17,17,17,17,17,17,16,17,17,17,17,17,17,17,17,17,17,17,17,17,17,17,17,17,17,17,17,17,17,17,17,17,17,17,17,17,17,17,17,17,17,17,17,17,17,18,16,17,17,15,17,17,17,17,17,17]","65","960","484.5","false","20","20","black","1","false","1","1","1920","969","d","staircase_color","","","","",""
"","","","","","html-keyboard-response","128","1729352","0.0-5.0-1.0-1.0-0.0-3.0-0.0-0.0-2.3","null","","null","<p style='font-size: 60px; color: green'>正确!</p>","","","","","","","","","","","","","","","","","","","","","","","","","","","","","","","","","","","","","","","","","","","","","","","",""
"","","","","","html-keyboard-response","129","1730418","0.0-5.0-1.0-1.0-0.0-3.0-0.0-0.0-0.4","null","fixation","null","<p style='font-size: 48px; color: white'>+</p >","","","","","","","","","","","","","","","","","","","","","","","","","","","","","","","","","","","","","","","","","","","","","","","",""
"","","","","","rdk","130","1732192","0.0-5.0-1.0-1.0-0.0-3.0-0.0-0.0-1.4","1208","color_test","k","","false","[""d"",""k""]","d","3000","true","1","100","0","0","0","3","1","-1","2","300","300","[""hsl(0, 50%, 50%)"",""hsl(225, 50%, 50%)""]","[""hsl(0, 50%, 50%)"",""hsl(225, 50%, 50%)""]","0.5","0.52","0","circle","black","3","2","2","16.916666666666668","[13,17,17,17,17,17,17,17,17,17,17,17,17,17,17,17,17,17,17,17,17,17,17,17,17,17,17,17,17,17,17,17,17,17,17,17,17,17,17,17,17,17,17,17,17,17,17,17,17,17,17,17,17,16,17,17,17,16,17,17,17,17,17,17,17,17,17,17,17,17,17,17]","72","960","484.5","false","20","20","black","1","false","1","1","1920","969","d","staircase_color","","","","",""
"","","","","","html-keyboard-response","131","1733268","0.0-5.0-1.0-1.0-0.0-3.0-0.0-0.0-2.4","null","","null","<p style='font-size: 60px; color: red'>错误!</p>","","","","","","","","","","","","","","","","","","","","","","","","","","","","","","","","","","","","","","","","","","","","","","","",""
"","","","","","html-keyboard-response","132","1734334","0.0-5.0-1.0-1.0-0.0-3.0-0.0-0.0-0.5","null","fixation","null","<p style='font-size: 48px; color: white'>+</p >","","","","","","","","","","","","","","","","","","","","","","","","","","","","","","","","","","","","","","","","","","","","","","","",""
"","","","","","rdk","133","1736225","0.0-5.0-1.0-1.0-0.0-3.0-0.0-0.0-1.5","1333","color_test","d","","true","[""d"",""k""]","d","3000","true","1","100","0","0","0","3","1","-1","2","300","300","[""hsl(0, 50%, 50%)"",""hsl(225, 50%, 50%)""]","[""hsl(0, 50%, 50%)"",""hsl(225, 50%, 50%)""]","0.5","0.52","0","circle","black","3","2","2","16.7375","[6,17,17,17,17,17,17,17,17,17,17,17,17,17,17,17,17,17,17,17,17,16,15,17,17,17,17,17,17,16,17,17,17,17,17,16,17,17,17,17,17,17,17,17,17,17,17,17,16,17,17,17,17,17,17,16,17,17,17,17,17,17,17,15,17,17,17,17,17,17,17,17,17,17,16,17,17,17,17,17]","80","960","484.5","false","20","20","black","1","false","1","1","1920","969","d","staircase_color","","","","",""
"","","","","","html-keyboard-response","134","1737293","0.0-5.0-1.0-1.0-0.0-3.0-0.0-0.0-2.5","null","","null","<p style='font-size: 60px; color: green'>正确!</p>","","","","","","","","","","","","","","","","","","","","","","","","","","","","","","","","","","","","","","","","","","","","","","","",""
"","","","","","html-keyboard-response","135","1738353","0.0-5.0-1.0-1.0-0.0-3.0-0.0-0.0-0.6","null","fixation","null","<p style='font-size: 48px; color: white'>+</p >","","","","","","","","","","","","","","","","","","","","","","","","","","","","","","","","","","","","","","","","","","","","","","","",""
"","","","","","rdk","136","1740144","0.0-5.0-1.0-1.0-0.0-3.0-0.0-0.0-1.6","1222","color_test","d","","false","[""d"",""k""]","k","3000","true","1","100","0","0","0","3","1","-1","2","300","300","[""hsl(0, 50%, 50%)"",""hsl(225, 50%, 50%)""]","[""hsl(225, 50%, 50%)"",""hsl(0, 50%, 50%)""]","0.5","0.52","0","circle","black","3","2","2","16.753424657534246","[9,16,17,17,17,17,17,17,17,17,17,17,17,17,17,17,17,17,17,17,17,17,17,17,17,17,16,17,17,16,17,17,17,17,17,17,17,17,17,17,17,17,16,16,17,17,17,17,17,17,17,17,17,17,16,17,16,17,16,17,17,17,17,17,16,17,17,16,17,17,17,17,17]","73","960","484.5","false","20","20","black","1","false","1","1","1920","969","k","staircase_color","","","","",""
"","","","","","html-keyboard-response","137","1741225","0.0-5.0-1.0-1.0-0.0-3.0-0.0-0.0-2.6","null","","null","<p style='font-size: 60px; color: red'>错误!</p>","","","","","","","","","","","","","","","","","","","","","","","","","","","","","","","","","","","","","","","","","","","","","","","",""
"","","","","","html-keyboard-response","138","1742301","0.0-5.0-1.0-1.0-0.0-3.0-0.0-0.0-0.7","null","fixation","null","<p style='font-size: 48px; color: white'>+</p >","","","","","","","","","","","","","","","","","","","","","","","","","","","","","","","","","","","","","","","","","","","","","","","",""
"","","","","","rdk","139","1744096","0.0-5.0-1.0-1.0-0.0-3.0-0.0-0.0-1.7","1229","color_test","d","","false","[""d"",""k""]","k","3000","true","1","100","0","0","0","3","1","-1","2","300","300","[""hsl(0, 50%, 50%)"",""hsl(225, 50%, 50%)""]","[""hsl(225, 50%, 50%)"",""hsl(0, 50%, 50%)""]","0.5","0.52","0","circle","black","3","2","2","16.91780821917808","[14,17,17,17,16,17,17,17,17,17,17,17,17,17,17,17,17,17,17,17,17,17,17,17,17,17,17,17,17,17,17,17,17,17,17,17,17,17,17,17,16,17,17,17,17,16,17,17,17,17,17,17,17,17,17,17,17,17,17,17,17,17,17,17,17,17,17,17,17,17,17,17,17]","73","960","484.5","false","20","20","black","1","false","1","1","1920","969","k","staircase_color","","","","",""
"","","","","","html-keyboard-response","140","1745180","0.0-5.0-1.0-1.0-0.0-3.0-0.0-0.0-2.7","null","","null","<p style='font-size: 60px; color: red'>错误!</p>","","","","","","","","","","","","","","","","","","","","","","","","","","","","","","","","","","","","","","","","","","","","","","","",""
"","","","","","html-keyboard-response","141","1746258","0.0-5.0-1.0-1.0-0.0-3.0-0.0-0.0-0.8","null","fixation","null","<p style='font-size: 48px; color: white'>+</p >","","","","","","","","","","","","","","","","","","","","","","","","","","","","","","","","","","","","","","","","","","","","","","","",""
"","","","","","rdk","142","1747992","0.0-5.0-1.0-1.0-0.0-3.0-0.0-0.0-1.8","1162","color_test","d","","false","[""d"",""k""]","k","3000","true","1","100","0","0","0","3","1","-1","2","300","300","[""hsl(0, 50%, 50%)"",""hsl(225, 50%, 50%)""]","[""hsl(225, 50%, 50%)"",""hsl(0, 50%, 50%)""]","0.5","0.52","0","circle","black","3","2","2","16.642857142857142","[2,16,17,17,16,17,17,17,17,17,17,17,17,17,17,17,18,15,17,18,16,17,17,17,17,17,17,15,17,17,17,17,17,17,17,17,17,17,17,17,17,15,17,17,17,17,17,17,17,17,16,17,17,17,17,17,17,17,17,17,16,17,17,17,17,17,17,16,17,17]","70","960","484.5","false","20","20","black","1","false","1","1","1920","969","k","staircase_color","","","","",""
"","","","","","html-keyboard-response","143","1749064","0.0-5.0-1.0-1.0-0.0-3.0-0.0-0.0-2.8","null","","null","<p style='font-size: 60px; color: red'>错误!</p>","","","","","","","","","","","","","","","","","","","","","","","","","","","","","","","","","","","","","","","","","","","","","","","",""
"","","","","","html-keyboard-response","144","1750138","0.0-5.0-1.0-1.0-0.0-3.0-0.0-0.0-0.9","null","fixation","null","<p style='font-size: 48px; color: white'>+</p >","","","","","","","","","","","","","","","","","","","","","","","","","","","","","","","","","","","","","","","","","","","","","","","",""
"","","","","","rdk","145","1751855","0.0-5.0-1.0-1.0-0.0-3.0-0.0-0.0-1.9","1149","color_test","d","","false","[""d"",""k""]","k","3000","true","1","100","0","0","0","3","1","-1","2","300","300","[""hsl(0, 50%, 50%)"",""hsl(225, 50%, 50%)""]","[""hsl(225, 50%, 50%)"",""hsl(0, 50%, 50%)""]","0.5","0.52","0","circle","black","3","2","2","16.782608695652176","[9,17,17,17,17,17,17,17,17,17,17,17,16,17,17,17,17,17,17,17,17,16,17,17,17,17,17,17,17,17,17,17,17,17,17,17,17,17,17,18,16,17,17,17,17,17,17,17,17,17,17,17,17,16,17,17,17,17,17,17,17,15,17,17,16,17,17,17,16]","69","960","484.5","false","20","20","black","1","false","1","1","1920","969","k","staircase_color","","","","",""
"","","","","","html-keyboard-response","146","1752919","0.0-5.0-1.0-1.0-0.0-3.0-0.0-0.0-2.9","null","","null","<p style='font-size: 60px; color: red'>错误!</p>","","","","","","","","","","","","","","","","","","","","","","","","","","","","","","","","","","","","","","","","","","","","","","","",""
"","","","","","html-keyboard-response","147","1753985","0.0-5.0-1.0-1.0-0.0-3.0-0.0-0.0-0.10","null","fixation","null","<p style='font-size: 48px; color: white'>+</p >","","","","","","","","","","","","","","","","","","","","","","","","","","","","","","","","","","","","","","","","","","","","","","","",""
"","","","","","rdk","148","1755977","0.0-5.0-1.0-1.0-0.0-3.0-0.0-0.0-1.10","1430","color_test","d","","true","[""d"",""k""]","d","3000","true","1","100","0","0","0","3","1","-1","2","300","300","[""hsl(0, 50%, 50%)"",""hsl(225, 50%, 50%)""]","[""hsl(0, 50%, 50%)"",""hsl(225, 50%, 50%)""]","0.5","0.52","0","circle","black","3","2","2","16.72093023255814","[2,16,17,17,17,17,17,17,17,17,16,17,17,17,17,17,17,17,17,17,17,17,17,17,17,17,17,17,16,17,17,17,17,17,17,17,17,17,16,17,17,17,17,17,17,16,17,17,17,17,17,17,17,16,17,17,17,17,17,17,17,16,17,17,17,17,17,17,17,16,17,17,17,17,17,17,17,17,16,17,17,17,17,17,17,17]","86","960","484.5","false","20","20","black","1","false","1","1","1920","969","d","staircase_color","","","","",""
"","","","","","html-keyboard-response","149","1757043","0.0-5.0-1.0-1.0-0.0-3.0-0.0-0.0-2.10","null","","null","<p style='font-size: 60px; color: green'>正确!</p>","","","","","","","","","","","","","","","","","","","","","","","","","","","","","","","","","","","","","","","","","","","","","","","",""
"","","","","","html-keyboard-response","150","1758103","0.0-5.0-1.0-1.0-0.0-3.0-0.0-0.0-0.11","null","fixation","null","<p style='font-size: 48px; color: white'>+</p >","","","","","","","","","","","","","","","","","","","","","","","","","","","","","","","","","","","","","","","","","","","","","","","",""
"","","","","","rdk","151","1760586","0.0-5.0-1.0-1.0-0.0-3.0-0.0-0.0-1.11","1926","color_test","k","","false","[""d"",""k""]","d","3000","true","1","100","0","0","0","3","1","-1","2","300","300","[""hsl(0, 50%, 50%)"",""hsl(225, 50%, 50%)""]","[""hsl(0, 50%, 50%)"",""hsl(225, 50%, 50%)""]","0.5","0.52","0","circle","black","3","2","2","16.870689655172413","[5,17,17,17,17,17,17,17,17,17,17,17,17,17,17,17,17,17,17,17,17,17,17,17,17,17,17,17,17,17,17,17,17,17,17,17,16,17,17,17,17,17,17,17,17,17,17,17,17,17,17,17,17,17,17,17,17,17,17,17,17,17,17,17,17,17,17,17,17,17,16,17,17,17,17,17,17,16,17,17,17,17,17,17,17,17,17,17,17,17,17,17,17,17,17,17,17,17,17,17,17,17,17,17,17,17,17,17,17,17,17,17,17,17,17,17]","116","960","484.5","false","20","20","black","1","false","1","1","1920","969","d","staircase_color","","","","",""
"","","","","","html-keyboard-response","152","1761662","0.0-5.0-1.0-1.0-0.0-3.0-0.0-0.0-2.11","null","","null","<p style='font-size: 60px; color: red'>错误!</p>","","","","","","","","","","","","","","","","","","","","","","","","","","","","","","","","","","","","","","","","","","","","","","","",""
"","","","","","html-keyboard-response","153","1764231","0.0-5.0-1.0-1.0-0.0-3.0-0.0-1.0","null","","null","<p style='font-size: 35px; color: white'>您的正确率为： 42% 。平均反应时为：1234毫秒。</p>","","","","","","","","","","","","","","","","","","","","","","","","","","","","","","","","","","","","","","","","","","","","","","","",""
"","","","","","html-keyboard-response","154","1765312","0.0-5.0-1.0-1.0-0.0-4.0-0.0-0.0-0.0","null","fixation","null","<p style='font-size: 48px; color: white'>+</p >","","","","","","","","","","","","","","","","","","","","","","","","","","","","","","","","","","","","","","","","","","","","","","","",""
"","","","","","rdk","155","1767072","0.0-5.0-1.0-1.0-0.0-4.0-0.0-0.0-1.0","1189","color_test","k","","true","[""d"",""k""]","k","3000","true","1","100","0","0","0","3","1","-1","2","300","300","[""hsl(0, 50%, 50%)"",""hsl(225, 50%, 50%)""]","[""hsl(225, 50%, 50%)"",""hsl(0, 50%, 50%)""]","0.5","0.53","0","circle","black","3","2","2","16.95774647887324","[15,17,17,17,17,17,17,17,17,17,17,17,17,17,17,17,17,17,17,17,17,17,17,17,17,17,18,15,17,17,17,17,17,17,17,17,17,17,17,17,17,17,17,17,17,17,17,17,17,17,17,17,17,17,17,17,17,17,17,17,17,17,17,17,17,17,17,17,17,17,17]","71","960","484.5","false","20","20","black","1","false","1","1","1920","969","k","staircase_color","","","","",""
"","","","","","html-keyboard-response","156","1768138","0.0-5.0-1.0-1.0-0.0-4.0-0.0-0.0-2.0","null","","null","<p style='font-size: 60px; color: green'>正确!</p>","","","","","","","","","","","","","","","","","","","","","","","","","","","","","","","","","","","","","","","","","","","","","","","",""
"","","","","","html-keyboard-response","157","1769202","0.0-5.0-1.0-1.0-0.0-4.0-0.0-0.0-0.1","null","fixation","null","<p style='font-size: 48px; color: white'>+</p >","","","","","","","","","","","","","","","","","","","","","","","","","","","","","","","","","","","","","","","","","","","","","","","",""
"","","","","","rdk","158","1771409","0.0-5.0-1.0-1.0-0.0-4.0-0.0-0.0-1.1","1651","color_test","k","","true","[""d"",""k""]","k","3000","true","1","100","0","0","0","3","1","-1","2","300","300","[""hsl(0, 50%, 50%)"",""hsl(225, 50%, 50%)""]","[""hsl(225, 50%, 50%)"",""hsl(0, 50%, 50%)""]","0.5","0.53","0","circle","black","3","2","2","16.757575757575758","[6,17,17,16,17,17,17,17,17,17,16,17,17,17,17,17,17,17,17,17,17,17,17,17,17,17,17,17,17,17,17,17,16,17,17,17,17,17,17,17,17,17,17,17,17,17,17,16,17,17,17,16,17,16,17,16,17,17,17,17,17,17,17,17,17,17,16,17,17,17,17,17,16,17,17,17,17,17,17,17,17,17,16,17,17,17,17,17,17,16,17,16,17,17,17,17,17,17,16]","99","960","484.5","false","20","20","black","1","false","1","1","1920","969","k","staircase_color","","","","",""
"","","","","","html-keyboard-response","159","1772486","0.0-5.0-1.0-1.0-0.0-4.0-0.0-0.0-2.1","null","","null","<p style='font-size: 60px; color: green'>正确!</p>","","","","","","","","","","","","","","","","","","","","","","","","","","","","","","","","","","","","","","","","","","","","","","","",""
"","","","","","html-keyboard-response","160","1773552","0.0-5.0-1.0-1.0-0.0-4.0-0.0-0.0-0.2","null","fixation","null","<p style='font-size: 48px; color: white'>+</p >","","","","","","","","","","","","","","","","","","","","","","","","","","","","","","","","","","","","","","","","","","","","","","","",""
"","","","","","rdk","161","1775849","0.0-5.0-1.0-1.0-0.0-4.0-0.0-0.0-1.2","1725","color_test","d","","true","[""d"",""k""]","d","3000","true","1","100","0","0","0","3","1","-1","2","300","300","[""hsl(0, 50%, 50%)"",""hsl(225, 50%, 50%)""]","[""hsl(0, 50%, 50%)"",""hsl(225, 50%, 50%)""]","0.5","0.53","0","circle","black","3","2","2","16.766990291262136","[6,18,16,17,17,17,17,15,17,17,17,17,16,17,17,17,18,16,17,17,16,16,17,17,17,17,17,16,17,17,17,17,17,17,17,17,17,17,17,17,17,16,17,17,17,17,17,17,17,17,17,17,17,17,16,17,17,17,16,17,17,17,17,16,17,17,17,17,17,17,17,16,17,17,17,17,17,17,17,17,17,17,17,17,17,17,16,17,17,17,16,17,17,17,17,17,17,17,17,17,17,17,17]","103","960","484.5","false","20","20","black","1","false","1","1","1920","969","d","staircase_color","","","","",""
"","","","","","html-keyboard-response","162","1776917","0.0-5.0-1.0-1.0-0.0-4.0-0.0-0.0-2.2","null","","null","<p style='font-size: 60px; color: green'>正确!</p>","","","","","","","","","","","","","","","","","","","","","","","","","","","","","","","","","","","","","","","","","","","","","","","",""
"","","","","","html-keyboard-response","163","1778000","0.0-5.0-1.0-1.0-0.0-4.0-0.0-0.0-0.3","null","fixation","null","<p style='font-size: 48px; color: white'>+</p >","","","","","","","","","","","","","","","","","","","","","","","","","","","","","","","","","","","","","","","","","","","","","","","",""
"","","","","","rdk","164","1779937","0.0-5.0-1.0-1.0-0.0-4.0-0.0-0.0-1.3","1372","color_test","d","","true","[""d"",""k""]","d","3000","true","1","100","0","0","0","3","1","-1","2","300","300","[""hsl(0, 50%, 50%)"",""hsl(225, 50%, 50%)""]","[""hsl(0, 50%, 50%)"",""hsl(225, 50%, 50%)""]","0.5","0.53","0","circle","black","3","2","2","16.975609756097562","[15,17,17,17,17,18,16,17,17,17,17,17,17,17,17,17,17,17,17,17,17,17,17,17,17,17,17,17,17,17,17,17,17,17,17,17,17,17,17,17,17,17,17,17,17,17,17,17,17,17,17,17,17,17,17,17,17,17,17,17,17,17,17,17,17,17,17,17,17,17,17,17,17,17,17,17,17,17,17,17,17,17]","82","960","484.5","false","20","20","black","1","false","1","1","1920","969","d","staircase_color","","","","",""
"","","","","","html-keyboard-response","165","1781005","0.0-5.0-1.0-1.0-0.0-4.0-0.0-0.0-2.3","null","","null","<p style='font-size: 60px; color: green'>正确!</p>","","","","","","","","","","","","","","","","","","","","","","","","","","","","","","","","","","","","","","","","","","","","","","","",""
"","","","","","html-keyboard-response","166","1782085","0.0-5.0-1.0-1.0-0.0-4.0-0.0-0.0-0.4","null","fixation","null","<p style='font-size: 48px; color: white'>+</p >","","","","","","","","","","","","","","","","","","","","","","","","","","","","","","","","","","","","","","","","","","","","","","","",""
"","","","","","rdk","167","1784271","0.0-5.0-1.0-1.0-0.0-4.0-0.0-0.0-1.4","1625","color_test","d","","false","[""d"",""k""]","k","3000","true","1","100","0","0","0","3","1","-1","2","300","300","[""hsl(0, 50%, 50%)"",""hsl(225, 50%, 50%)""]","[""hsl(225, 50%, 50%)"",""hsl(0, 50%, 50%)""]","0.5","0.53","0","circle","black","3","2","2","16.724489795918366","[2,16,17,17,17,17,17,17,17,17,17,17,17,17,17,17,17,17,17,17,15,17,17,17,17,17,17,17,17,17,17,17,17,17,17,17,16,17,17,17,17,17,17,17,17,16,17,17,16,17,17,17,17,18,16,17,17,17,17,17,17,17,17,17,16,17,17,17,17,17,17,17,17,17,17,15,17,17,17,17,17,17,17,17,17,17,17,17,16,17,17,17,17,17,17,17,15,17]","98","960","484.5","false","20","20","black","1","false","1","1","1920","969","k","staircase_color","","","","",""
"","","","","","html-keyboard-response","168","1785338","0.0-5.0-1.0-1.0-0.0-4.0-0.0-0.0-2.4","null","","null","<p style='font-size: 60px; color: red'>错误!</p>","","","","","","","","","","","","","","","","","","","","","","","","","","","","","","","","","","","","","","","","","","","","","","","",""
"","","","","","html-keyboard-response","169","1786414","0.0-5.0-1.0-1.0-0.0-4.0-0.0-0.0-0.5","null","fixation","null","<p style='font-size: 48px; color: white'>+</p >","","","","","","","","","","","","","","","","","","","","","","","","","","","","","","","","","","","","","","","","","","","","","","","",""
"","","","","","rdk","170","1788735","0.0-5.0-1.0-1.0-0.0-4.0-0.0-0.0-1.5","1755","color_test","k","","false","[""d"",""k""]","d","3000","true","1","100","0","0","0","3","1","-1","2","300","300","[""hsl(0, 50%, 50%)"",""hsl(225, 50%, 50%)""]","[""hsl(0, 50%, 50%)"",""hsl(225, 50%, 50%)""]","0.5","0.53","0","circle","black","3","2","2","16.735849056603772","[5,11,17,17,17,17,17,17,17,17,17,17,17,17,17,17,17,17,17,17,17,17,17,16,17,17,17,17,17,17,17,17,17,17,17,17,17,17,17,17,17,17,17,17,17,17,17,17,16,17,17,17,16,17,17,17,17,17,17,17,17,17,16,17,16,17,17,17,17,17,17,17,17,16,16,17,17,17,17,17,17,16,17,17,17,17,17,17,17,17,17,16,17,17,17,17,17,17,17,17,17,17,17,17,16,17]","106","960","484.5","false","20","20","black","1","false","1","1","1920","969","d","staircase_color","","","","",""
"","","","","","html-keyboard-response","171","1789803","0.0-5.0-1.0-1.0-0.0-4.0-0.0-0.0-2.5","null","","null","<p style='font-size: 60px; color: red'>错误!</p>","","","","","","","","","","","","","","","","","","","","","","","","","","","","","","","","","","","","","","","","","","","","","","","",""
"","","","","","html-keyboard-response","172","1790873","0.0-5.0-1.0-1.0-0.0-4.0-0.0-0.0-0.6","null","fixation","null","<p style='font-size: 48px; color: white'>+</p >","","","","","","","","","","","","","","","","","","","","","","","","","","","","","","","","","","","","","","","","","","","","","","","",""
"","","","","","rdk","173","1793256","0.0-5.0-1.0-1.0-0.0-4.0-0.0-0.0-1.6","1825","color_test","d","","true","[""d"",""k""]","d","3000","true","1","100","0","0","0","3","1","-1","2","300","300","[""hsl(0, 50%, 50%)"",""hsl(225, 50%, 50%)""]","[""hsl(0, 50%, 50%)"",""hsl(225, 50%, 50%)""]","0.5","0.53","0","circle","black","3","2","2","16.953703703703702","[16,17,17,17,17,17,17,17,17,17,17,17,17,17,17,17,17,17,17,17,17,17,17,17,17,17,17,17,17,17,16,17,17,17,17,17,17,17,17,17,17,17,17,16,17,17,17,17,17,17,17,17,17,17,17,17,17,17,17,17,17,17,17,17,17,17,17,17,17,17,17,17,17,17,17,17,17,17,17,17,17,17,17,17,17,17,17,17,17,17,17,16,16,17,17,17,17,17,17,17,17,17,17,17,17,17,17,17]","108","960","484.5","false","20","20","black","1","false","1","1","1920","969","d","staircase_color","","","","",""
"","","","","","html-keyboard-response","174","1794318","0.0-5.0-1.0-1.0-0.0-4.0-0.0-0.0-2.6","null","","null","<p style='font-size: 60px; color: green'>正确!</p>","","","","","","","","","","","","","","","","","","","","","","","","","","","","","","","","","","","","","","","","","","","","","","","",""
"","","","","","html-keyboard-response","175","1795393","0.0-5.0-1.0-1.0-0.0-4.0-0.0-0.0-0.7","null","fixation","null","<p style='font-size: 48px; color: white'>+</p >","","","","","","","","","","","","","","","","","","","","","","","","","","","","","","","","","","","","","","","","","","","","","","","",""
"","","","","","rdk","176","1797641","0.0-5.0-1.0-1.0-0.0-4.0-0.0-0.0-1.7","1687","color_test","k","","true","[""d"",""k""]","k","3000","true","1","100","0","0","0","3","1","-1","2","300","300","[""hsl(0, 50%, 50%)"",""hsl(225, 50%, 50%)""]","[""hsl(225, 50%, 50%)"",""hsl(0, 50%, 50%)""]","0.5","0.53","0","circle","black","3","2","2","16.91089108910891","[10,17,17,17,17,17,17,17,17,17,17,17,17,17,17,17,17,17,17,17,17,17,17,17,17,17,17,25,8,17,17,17,17,17,17,17,17,17,17,17,17,17,17,17,17,17,17,17,17,17,17,17,17,17,16,17,17,17,17,17,17,17,17,17,17,17,17,17,17,17,17,17,17,17,17,17,17,17,17,17,17,17,17,17,17,17,17,17,17,17,17,17,17,17,17,17,17,17,17,17,17]","101","960","484.5","false","20","20","black","1","false","1","1","1920","969","k","staircase_color","","","","",""
"","","","","","html-keyboard-response","177","1798705","0.0-5.0-1.0-1.0-0.0-4.0-0.0-0.0-2.7","null","","null","<p style='font-size: 60px; color: green'>正确!</p>","","","","","","","","","","","","","","","","","","","","","","","","","","","","","","","","","","","","","","","","","","","","","","","",""
"","","","","","html-keyboard-response","178","1799791","0.0-5.0-1.0-1.0-0.0-4.0-0.0-0.0-0.8","null","fixation","null","<p style='font-size: 48px; color: white'>+</p >","","","","","","","","","","","","","","","","","","","","","","","","","","","","","","","","","","","","","","","","","","","","","","","",""
"","","","","","rdk","179","1801536","0.0-5.0-1.0-1.0-0.0-4.0-0.0-0.0-1.8","1188","color_test","d","","true","[""d"",""k""]","d","3000","true","1","100","0","0","0","3","1","-1","2","300","300","[""hsl(0, 50%, 50%)"",""hsl(225, 50%, 50%)""]","[""hsl(0, 50%, 50%)"",""hsl(225, 50%, 50%)""]","0.5","0.53","0","circle","black","3","2","2","16.887323943661972","[18,16,17,16,17,17,17,17,17,17,17,17,17,16,17,17,17,17,17,17,17,16,17,17,17,17,17,17,17,17,17,17,17,17,17,17,17,17,17,17,17,16,17,17,17,17,17,17,16,17,17,17,17,17,17,16,17,17,17,17,17,17,17,17,17,17,16,17,17,17,16]","71","960","484.5","false","20","20","black","1","false","1","1","1920","969","d","staircase_color","","","","",""
"","","","","","html-keyboard-response","180","1802595","0.0-5.0-1.0-1.0-0.0-4.0-0.0-0.0-2.8","null","","null","<p style='font-size: 60px; color: green'>正确!</p>","","","","","","","","","","","","","","","","","","","","","","","","","","","","","","","","","","","","","","","","","","","","","","","",""
"","","","","","html-keyboard-response","181","1803668","0.0-5.0-1.0-1.0-0.0-4.0-0.0-0.0-0.9","null","fixation","null","<p style='font-size: 48px; color: white'>+</p >","","","","","","","","","","","","","","","","","","","","","","","","","","","","","","","","","","","","","","","","","","","","","","","",""
"","","","","","rdk","182","1805104","0.0-5.0-1.0-1.0-0.0-4.0-0.0-0.0-1.9","867","color_test","d","","false","[""d"",""k""]","k","3000","true","1","100","0","0","0","3","1","-1","2","300","300","[""hsl(0, 50%, 50%)"",""hsl(225, 50%, 50%)""]","[""hsl(225, 50%, 50%)"",""hsl(0, 50%, 50%)""]","0.5","0.53","0","circle","black","3","2","2","16.846153846153847","[10,17,17,17,17,17,17,17,17,17,17,17,17,17,17,17,17,17,17,17,17,17,17,17,17,17,17,17,17,17,17,17,17,17,17,17,17,17,17,17,17,17,16,17,17,17,17,17,17,17,17,17]","52","960","484.5","false","20","20","black","1","false","1","1","1920","969","k","staircase_color","","","","",""
"","","","","","html-keyboard-response","183","1806185","0.0-5.0-1.0-1.0-0.0-4.0-0.0-0.0-2.9","null","","null","<p style='font-size: 60px; color: red'>错误!</p>","","","","","","","","","","","","","","","","","","","","","","","","","","","","","","","","","","","","","","","","","","","","","","","",""
"","","","","","html-keyboard-response","184","1807263","0.0-5.0-1.0-1.0-0.0-4.0-0.0-0.0-0.10","null","fixation","null","<p style='font-size: 48px; color: white'>+</p >","","","","","","","","","","","","","","","","","","","","","","","","","","","","","","","","","","","","","","","","","","","","","","","",""
"","","","","","rdk","185","1808912","0.0-5.0-1.0-1.0-0.0-4.0-0.0-0.0-1.10","1079","color_test","d","","false","[""d"",""k""]","k","3000","true","1","100","0","0","0","3","1","-1","2","300","300","[""hsl(0, 50%, 50%)"",""hsl(225, 50%, 50%)""]","[""hsl(225, 50%, 50%)"",""hsl(0, 50%, 50%)""]","0.5","0.53","0","circle","black","3","2","2","16.9375","[15,17,17,17,17,17,17,17,17,17,17,17,17,17,17,17,17,17,17,17,17,17,17,17,17,17,17,17,17,17,17,17,17,17,17,17,16,17,17,17,17,17,17,17,17,16,17,17,17,17,17,17,17,17,17,17,17,17,17,17,17,17,17,17]","64","960","484.5","false","20","20","black","1","false","1","1","1920","969","k","staircase_color","","","","",""
"","","","","","html-keyboard-response","186","1809993","0.0-5.0-1.0-1.0-0.0-4.0-0.0-0.0-2.10","null","","null","<p style='font-size: 60px; color: red'>错误!</p>","","","","","","","","","","","","","","","","","","","","","","","","","","","","","","","","","","","","","","","","","","","","","","","",""
"","","","","","html-keyboard-response","187","1811067","0.0-5.0-1.0-1.0-0.0-4.0-0.0-0.0-0.11","null","fixation","null","<p style='font-size: 48px; color: white'>+</p >","","","","","","","","","","","","","","","","","","","","","","","","","","","","","","","","","","","","","","","","","","","","","","","",""
"","","","","","rdk","188","1812360","0.0-5.0-1.0-1.0-0.0-4.0-0.0-0.0-1.11","734","color_test","k","","false","[""d"",""k""]","d","3000","true","1","100","0","0","0","3","1","-1","2","300","300","[""hsl(0, 50%, 50%)"",""hsl(225, 50%, 50%)""]","[""hsl(0, 50%, 50%)"",""hsl(225, 50%, 50%)""]","0.5","0.53","0","circle","black","3","2","2","16.636363636363637","[5,17,17,17,17,17,17,17,17,25,8,17,17,17,17,17,16,17,17,17,16,18,16,17,16,17,17,17,17,17,17,17,17,17,17,17,17,17,17,17,17,17,17,17]","44","960","484.5","false","20","20","black","1","false","1","1","1920","969","d","staircase_color","","","","",""
"","","","","","html-keyboard-response","189","1813438","0.0-5.0-1.0-1.0-0.0-4.0-0.0-0.0-2.11","null","","null","<p style='font-size: 60px; color: red'>错误!</p>","","","","","","","","","","","","","","","","","","","","","","","","","","","","","","","","","","","","","","","","","","","","","","","",""
"","","","","","html-keyboard-response","190","1816009","0.0-5.0-1.0-1.0-0.0-4.0-0.0-1.0","null","","null","<p style='font-size: 35px; color: white'>您的正确率为： 58% 。平均反应时为：1391毫秒。</p>","","","","","","","","","","","","","","","","","","","","","","","","","","","","","","","","","","","","","","","","","","","","","","","",""
"","","","","","html-keyboard-response","191","1817091","0.0-5.0-1.0-1.0-0.0-5.0-0.0-0.0-0.0","null","fixation","null","<p style='font-size: 48px; color: white'>+</p >","","","","","","","","","","","","","","","","","","","","","","","","","","","","","","","","","","","","","","","","","","","","","","","",""
"","","","","","rdk","192","1818728","0.0-5.0-1.0-1.0-0.0-5.0-0.0-0.0-1.0","1066","color_test","d","","true","[""d"",""k""]","d","3000","true","1","100","0","0","0","3","1","-1","2","300","300","[""hsl(0, 50%, 50%)"",""hsl(225, 50%, 50%)""]","[""hsl(0, 50%, 50%)"",""hsl(225, 50%, 50%)""]","0.5","0.56","0","circle","black","3","2","2","16.75","[3,16,17,17,17,17,17,17,17,17,17,17,17,17,16,17,17,17,17,17,17,17,17,17,17,17,17,17,17,17,17,17,17,17,17,17,17,17,17,17,17,17,17,17,17,17,17,17,17,17,17,17,17,17,17,17,17,17,17,17,17,17,17,17]","64","960","484.5","false","20","20","black","1","false","1","1","1920","969","d","staircase_color","","","","",""
"","","","","","html-keyboard-response","193","1819797","0.0-5.0-1.0-1.0-0.0-5.0-0.0-0.0-2.0","null","","null","<p style='font-size: 60px; color: green'>正确!</p>","","","","","","","","","","","","","","","","","","","","","","","","","","","","","","","","","","","","","","","","","","","","","","","",""
"","","","","","html-keyboard-response","194","1820873","0.0-5.0-1.0-1.0-0.0-5.0-0.0-0.0-0.1","null","fixation","null","<p style='font-size: 48px; color: white'>+</p >","","","","","","","","","","","","","","","","","","","","","","","","","","","","","","","","","","","","","","","","","","","","","","","",""
"","","","","","rdk","195","1822360","0.0-5.0-1.0-1.0-0.0-5.0-0.0-0.0-1.1","919","color_test","k","","true","[""d"",""k""]","k","3000","true","1","100","0","0","0","3","1","-1","2","300","300","[""hsl(0, 50%, 50%)"",""hsl(225, 50%, 50%)""]","[""hsl(225, 50%, 50%)"",""hsl(0, 50%, 50%)""]","0.5","0.56","0","circle","black","3","2","2","16.636363636363637","[6,18,16,17,17,16,18,17,17,17,17,17,17,17,17,17,17,16,17,17,16,17,17,17,17,17,16,17,17,17,17,16,16,17,17,17,17,17,17,17,17,17,17,17,16,17,17,16,17,16,17,16,17,17,17]","55","960","484.5","false","20","20","black","1","false","1","1","1920","969","k","staircase_color","","","","",""
"","","","","","html-keyboard-response","196","1823422","0.0-5.0-1.0-1.0-0.0-5.0-0.0-0.0-2.1","null","","null","<p style='font-size: 60px; color: green'>正确!</p>","","","","","","","","","","","","","","","","","","","","","","","","","","","","","","","","","","","","","","","","","","","","","","","",""
"","","","","","html-keyboard-response","197","1824492","0.0-5.0-1.0-1.0-0.0-5.0-0.0-0.0-0.2","null","fixation","null","<p style='font-size: 48px; color: white'>+</p >","","","","","","","","","","","","","","","","","","","","","","","","","","","","","","","","","","","","","","","","","","","","","","","",""
"","","","","","rdk","198","1826304","0.0-5.0-1.0-1.0-0.0-5.0-0.0-0.0-1.2","1248","color_test","k","","true","[""d"",""k""]","k","3000","true","1","100","0","0","0","3","1","-1","2","300","300","[""hsl(0, 50%, 50%)"",""hsl(225, 50%, 50%)""]","[""hsl(225, 50%, 50%)"",""hsl(0, 50%, 50%)""]","0.5","0.56","0","circle","black","3","2","2","16.786666666666665","[8,17,17,17,17,17,17,16,17,17,17,16,17,15,17,17,17,16,17,17,16,17,17,17,17,17,17,16,17,17,17,17,17,17,17,17,17,17,17,17,17,17,17,17,17,17,17,17,17,17,17,17,17,17,17,17,17,17,17,17,17,17,17,17,17,17,17,17,17,17,17,17,17,17,17]","75","960","484.5","false","20","20","black","1","false","1","1","1920","969","k","staircase_color","","","","",""
"","","","","","html-keyboard-response","199","1827370","0.0-5.0-1.0-1.0-0.0-5.0-0.0-0.0-2.2","null","","null","<p style='font-size: 60px; color: green'>正确!</p>","","","","","","","","","","","","","","","","","","","","","","","","","","","","","","","","","","","","","","","","","","","","","","","",""
"","","","","","html-keyboard-response","200","1828441","0.0-5.0-1.0-1.0-0.0-5.0-0.0-0.0-0.3","null","fixation","null","<p style='font-size: 48px; color: white'>+</p >","","","","","","","","","","","","","","","","","","","","","","","","","","","","","","","","","","","","","","","","","","","","","","","",""
"","","","","","rdk","201","1829927","0.0-5.0-1.0-1.0-0.0-5.0-0.0-0.0-1.3","929","color_test","d","","true","[""d"",""k""]","d","3000","true","1","100","0","0","0","3","1","-1","2","300","300","[""hsl(0, 50%, 50%)"",""hsl(225, 50%, 50%)""]","[""hsl(0, 50%, 50%)"",""hsl(225, 50%, 50%)""]","0.5","0.56","0","circle","black","3","2","2","16.87272727272727","[16,17,17,17,17,17,16,17,17,17,17,16,17,17,17,17,17,17,17,17,17,17,17,17,17,17,17,17,17,17,17,17,17,16,17,17,17,17,17,17,17,17,17,18,15,17,17,17,17,17,17,17,17,18,14]","55","960","484.5","false","20","20","black","1","false","1","1","1920","969","d","staircase_color","","","","",""
"","","","","","html-keyboard-response","202","1830993","0.0-5.0-1.0-1.0-0.0-5.0-0.0-0.0-2.3","null","","null","<p style='font-size: 60px; color: green'>正确!</p>","","","","","","","","","","","","","","","","","","","","","","","","","","","","","","","","","","","","","","","","","","","","","","","",""
"","","","","","html-keyboard-response","203","1832070","0.0-5.0-1.0-1.0-0.0-5.0-0.0-0.0-0.4","null","fixation","null","<p style='font-size: 48px; color: white'>+</p >","","","","","","","","","","","","","","","","","","","","","","","","","","","","","","","","","","","","","","","","","","","","","","","",""
"","","","","","rdk","204","1833424","0.0-5.0-1.0-1.0-0.0-5.0-0.0-0.0-1.4","777","color_test","k","","true","[""d"",""k""]","k","3000","true","1","100","0","0","0","3","1","-1","2","300","300","[""hsl(0, 50%, 50%)"",""hsl(225, 50%, 50%)""]","[""hsl(225, 50%, 50%)"",""hsl(0, 50%, 50%)""]","0.5","0.56","0","circle","black","3","2","2","16.48936170212766","[1,17,17,17,17,17,17,17,17,17,17,17,17,17,17,17,18,15,17,17,16,16,15,17,17,16,17,17,17,17,17,17,17,17,17,17,17,17,17,17,17,16,17,17,17,16,17]","47","960","484.5","false","20","20","black","1","false","1","1","1920","969","k","staircase_color","","","","",""
"","","","","","html-keyboard-response","205","1834502","0.0-5.0-1.0-1.0-0.0-5.0-0.0-0.0-2.4","null","","null","<p style='font-size: 60px; color: green'>正确!</p>","","","","","","","","","","","","","","","","","","","","","","","","","","","","","","","","","","","","","","","","","","","","","","","",""
"","","","","","html-keyboard-response","206","1835583","0.0-5.0-1.0-1.0-0.0-5.0-0.0-0.0-0.5","null","fixation","null","<p style='font-size: 48px; color: white'>+</p >","","","","","","","","","","","","","","","","","","","","","","","","","","","","","","","","","","","","","","","","","","","","","","","",""
"","","","","","rdk","207","1837296","0.0-5.0-1.0-1.0-0.0-5.0-0.0-0.0-1.5","1149","color_test","k","","true","[""d"",""k""]","k","3000","true","1","100","0","0","0","3","1","-1","2","300","300","[""hsl(0, 50%, 50%)"",""hsl(225, 50%, 50%)""]","[""hsl(225, 50%, 50%)"",""hsl(0, 50%, 50%)""]","0.5","0.56","0","circle","black","3","2","2","16.897058823529413","[17,15,17,17,17,17,17,17,17,17,17,17,17,17,17,17,17,17,17,17,17,17,17,17,17,17,16,17,17,17,17,17,17,17,17,17,17,17,17,17,17,16,17,17,17,17,17,17,16,17,17,17,17,17,17,17,16,17,17,17,17,17,17,17,17,18,15,17]","68","960","484.5","false","20","20","black","1","false","1","1","1920","969","k","staircase_color","","","","",""
"","","","","","html-keyboard-response","208","1838367","0.0-5.0-1.0-1.0-0.0-5.0-0.0-0.0-2.5","null","","null","<p style='font-size: 60px; color: green'>正确!</p>","","","","","","","","","","","","","","","","","","","","","","","","","","","","","","","","","","","","","","","","","","","","","","","",""
"","","","","","html-keyboard-response","209","1839436","0.0-5.0-1.0-1.0-0.0-5.0-0.0-0.0-0.6","null","fixation","null","<p style='font-size: 48px; color: white'>+</p >","","","","","","","","","","","","","","","","","","","","","","","","","","","","","","","","","","","","","","","","","","","","","","","",""
"","","","","","rdk","210","1840824","0.0-5.0-1.0-1.0-0.0-5.0-0.0-0.0-1.6","818","color_test","d","","true","[""d"",""k""]","d","3000","true","1","100","0","0","0","3","1","-1","2","300","300","[""hsl(0, 50%, 50%)"",""hsl(225, 50%, 50%)""]","[""hsl(0, 50%, 50%)"",""hsl(225, 50%, 50%)""]","0.5","0.56","0","circle","black","3","2","2","16.775510204081634","[9,17,17,17,17,17,17,17,17,17,17,16,17,17,17,17,17,17,17,17,17,17,17,17,17,17,17,17,16,17,17,17,17,17,17,17,17,17,17,17,17,17,17,16,17,17,17,17,17]","49","960","484.5","false","20","20","black","1","false","1","1","1920","969","d","staircase_color","","","","",""
"","","","","","html-keyboard-response","211","1841884","0.0-5.0-1.0-1.0-0.0-5.0-0.0-0.0-2.6","null","","null","<p style='font-size: 60px; color: green'>正确!</p>","","","","","","","","","","","","","","","","","","","","","","","","","","","","","","","","","","","","","","","","","","","","","","","",""
"","","","","","html-keyboard-response","212","1842966","0.0-5.0-1.0-1.0-0.0-5.0-0.0-0.0-0.7","null","fixation","null","<p style='font-size: 48px; color: white'>+</p >","","","","","","","","","","","","","","","","","","","","","","","","","","","","","","","","","","","","","","","","","","","","","","","",""
"","","","","","rdk","213","1844703","0.0-5.0-1.0-1.0-0.0-5.0-0.0-0.0-1.7","1177","color_test","d","","true","[""d"",""k""]","d","3000","true","1","100","0","0","0","3","1","-1","2","300","300","[""hsl(0, 50%, 50%)"",""hsl(225, 50%, 50%)""]","[""hsl(0, 50%, 50%)"",""hsl(225, 50%, 50%)""]","0.5","0.56","0","circle","black","3","2","2","16.676056338028168","[4,17,17,17,17,17,17,17,17,17,16,17,17,17,17,17,17,17,17,17,17,17,17,17,17,17,17,17,17,17,17,17,17,17,17,17,17,17,17,17,16,17,17,17,17,16,15,17,16,17,17,17,17,17,17,17,17,17,17,16,17,17,16,17,17,17,17,17,16,16,17]","71","960","484.5","false","20","20","black","1","false","1","1","1920","969","d","staircase_color","","","","",""
"","","","","","html-keyboard-response","214","1845775","0.0-5.0-1.0-1.0-0.0-5.0-0.0-0.0-2.7","null","","null","<p style='font-size: 60px; color: green'>正确!</p>","","","","","","","","","","","","","","","","","","","","","","","","","","","","","","","","","","","","","","","","","","","","","","","",""
"","","","","","html-keyboard-response","215","1846860","0.0-5.0-1.0-1.0-0.0-5.0-0.0-0.0-0.8","null","fixation","null","<p style='font-size: 48px; color: white'>+</p >","","","","","","","","","","","","","","","","","","","","","","","","","","","","","","","","","","","","","","","","","","","","","","","",""
"","","","","","rdk","216","1848175","0.0-5.0-1.0-1.0-0.0-5.0-0.0-0.0-1.8","759","color_test","k","","false","[""d"",""k""]","d","3000","true","1","100","0","0","0","3","1","-1","2","300","300","[""hsl(0, 50%, 50%)"",""hsl(225, 50%, 50%)""]","[""hsl(0, 50%, 50%)"",""hsl(225, 50%, 50%)""]","0.5","0.56","0","circle","black","3","2","2","16.977777777777778","[16,17,17,17,17,17,17,17,17,17,17,17,17,17,17,17,17,17,17,17,17,17,17,17,17,17,17,17,17,17,17,17,17,17,17,17,17,17,17,17,17,17,17,17,17]","45","960","484.5","false","20","20","black","1","false","1","1","1920","969","d","staircase_color","","","","",""
"","","","","","html-keyboard-response","217","1849235","0.0-5.0-1.0-1.0-0.0-5.0-0.0-0.0-2.8","null","","null","<p style='font-size: 60px; color: red'>错误!</p>","","","","","","","","","","","","","","","","","","","","","","","","","","","","","","","","","","","","","","","","","","","","","","","",""
"","","","","","html-keyboard-response","218","1850314","0.0-5.0-1.0-1.0-0.0-5.0-0.0-0.0-0.9","null","fixation","null","<p style='font-size: 48px; color: white'>+</p >","","","","","","","","","","","","","","","","","","","","","","","","","","","","","","","","","","","","","","","","","","","","","","","",""
"","","","","","rdk","219","1851641","0.0-5.0-1.0-1.0-0.0-5.0-0.0-0.0-1.9","769","color_test","k","","true","[""d"",""k""]","k","3000","true","1","100","0","0","0","3","1","-1","2","300","300","[""hsl(0, 50%, 50%)"",""hsl(225, 50%, 50%)""]","[""hsl(225, 50%, 50%)"",""hsl(0, 50%, 50%)""]","0.5","0.56","0","circle","black","3","2","2","16.782608695652176","[8,17,17,17,17,17,17,17,17,17,17,17,17,17,16,17,17,17,17,17,17,17,17,17,17,17,17,17,17,17,17,17,17,17,17,17,17,17,17,17,17,17,17,17,17,17]","46","960","484.5","false","20","20","black","1","false","1","1","1920","969","k","staircase_color","","","","",""
"","","","","","html-keyboard-response","220","1852702","0.0-5.0-1.0-1.0-0.0-5.0-0.0-0.0-2.9","null","","null","<p style='font-size: 60px; color: green'>正确!</p>","","","","","","","","","","","","","","","","","","","","","","","","","","","","","","","","","","","","","","","","","","","","","","","",""
"","","","","","html-keyboard-response","221","1853785","0.0-5.0-1.0-1.0-0.0-5.0-0.0-0.0-0.10","null","fixation","null","<p style='font-size: 48px; color: white'>+</p >","","","","","","","","","","","","","","","","","","","","","","","","","","","","","","","","","","","","","","","","","","","","","","","",""
