"success","timeout","failed_images","failed_audio","failed_video","trial_type","trial_index","time_elapsed","internal_node_id","rt","part","response","stimulus","correct","choices","correct_choice","trial_duration","response_ends_trial","number_of_apertures","number_of_dots","coherent_direction","coherence","opposite_coherence","dot_radius","dot_side_length","dot_life","move_distance","aperture_width","aperture_height","dot_color","dot_color_final","color_change_delay","target_color_proportion","motion_change_delay","dot_shape","background_color","RDK_type","aperture_type","reinsert_type","frame_rate","frame_rate_array","number_of_frames","aperture_center_x","aperture_center_y","fixation_cross","fixation_cross_width","fixation_cross_height","fixation_cross_color","fixation_cross_thickness","border","border_thickness","border_color","canvas_width","canvas_height","correct_response","data_label","task","difficulty","isMatch","association","label"
"true","false","[]","[]","[]","preload","0","5","0.0-0.0","","","","","","","","","","","","","","","","","","","","","","","","","","","","","","","","","","","","","","","","","","","","","","","","","","","",""
"true","","","","","fullscreen","1","477011","0.0-1.0","475033","fullScreen","","","","","","","","","","","","","","","","","","","","","","","","","","","","","","","","","","","","","","","","","","","","","","","","","",""
"","","","","","survey","2","497765","0.0-2.0","19748","survey","{""sex"":""女"",""age"":18,""hands"":""右"",""color_blindness"":""都不是""}","","","","","","","","","","","","","","","","","","","","","","","","","","","","","","","","","","","","","","","","","","","","","","","","",""
"","","","","","survey-text","3","508984","0.0-3.0","10232","color_test","{""Q0"":""BE""}","","","","","","","","","","","","","","","","","","","","","","","","","","","","","","","","","","","","","","","","","","","","","","","","",""
"","","","","","html-keyboard-response","4","514640","0.0-4.0","4698","instruction_beginning"," ","
      <div style=""text-align: left; color: white"">
        <h3 style=""text-align: center; font-size: 30px; margin: 0;"">欢迎参与本实验</h3>
          <p>为充分保障您的权利，请确保您已经知晓并同意《参与实验同意书》以及《数据公开知情同意书》，</p>
          <p>如果您未见过上述内容，请咨询实验员 ，</p>
          <p>如果您选择继续实验，则表示您已经清楚两份知情同意书的内容并同意 。</p>
          <p>在整个实验中，您需要完成两项任务，具体的任务要求会在后面说明 ，</p>
          <p>请按空格键进入实验</p >
      </div>","","","","","","","","","","","","","","","","","","","","","","","","","","","","","","","","","","","","","","","","","","","","","","","",""
"","","","","","html-keyboard-response","5","532329","0.0-5.0-0.0","16729","instruction_getThreshold"," ","
        <div style=""text-align: left; color: white; padding: 10px""> 
          <h3 style=""text-align: center; font-size: 30px; margin: 10px"">欢迎进入实验！</h3>
          <p>在正式开始前，我们将通过一个快速测试为您打造专属的难度水平。<p>
          <p>接下来，屏幕上会呈现一些运动的圆点，其中一定比例的点为 <span style=""color: hsl(0, 50%, 50%)"">红色</span> ，其余为 <span style=""color: hsl(225, 50%, 50%)"">蓝色</span>，</p>
          <p>您需要在3秒内判断 <span style=""font-weight: bold"">散点图的整体颜色（即大多数点的颜色）是红色还是蓝色 </span>：</p >
          <ul>
            <li>整体为 <span style=""color: hsl(0, 50%, 50%)"">红色</span>，请按键盘 <span style=""color: hsl(0, 50%, 50%)"">""D"" 键</span></li>
            <li>整体为 <span style=""color: hsl(225, 50%, 50%)"">蓝色</span>，请按键盘 <span style=""color: hsl(225, 50%, 50%)"">""k"" 键</span> </li>
          </ul>
          <p>如有疑问请向主试咨询，没有则按下空格键开始</p>
        </div>","","","","","","","","","","","","","","","","","","","","","","","","","","","","","","","","","","","","","","","","","","","","","","","",""
"","","","","","html-keyboard-response","6","533805","0.0-5.0-1.0-1.0-0.0-0.0-0.0-0.0-0.0","null","fixation","null","<p style='font-size: 48px; color: white'>+</p >","","","","","","","","","","","","","","","","","","","","","","","","","","","","","","","","","","","","","","","","","","","","","","","",""
"","","","","","rdk","7","537784","0.0-5.0-1.0-1.0-0.0-0.0-0.0-0.0-1.0","-1","color_test","","","false","[""d"",""k""]","k","3000","true","1","100","0","0","0","3","1","-1","2","300","300","[""hsl(0, 50%, 50%)"",""hsl(225, 50%, 50%)""]","[""hsl(225, 50%, 50%)"",""hsl(0, 50%, 50%)""]","0.5","0.58","0","circle","black","3","2","2","16.844444444444445","[5,17,17,17,17,16,17,16,18,17,17,17,17,15,16,17,16,17,16,17,17,17,17,17,16,16,17,16,17,17,17,16,17,17,17,17,17,17,17,17,17,15,17,16,17,17,17,17,17,17,17,17,17,17,17,17,17,17,17,17,17,17,17,17,17,17,17,17,17,17,17,17,17,17,17,17,17,17,17,17,17,17,17,17,17,17,17,17,17,17,17,17,16,16,17,17,17,17,17,17,17,17,17,17,17,17,17,17,17,17,17,17,17,17,17,17,17,17,17,17,17,17,17,17,17,17,17,17,17,18,16,17,17,17,17,17,17,17,17,17,17,17,17,17,17,17,17,17,17,17,17,17,17,17,17,17,17,17,17,17,17,17,17,17,17,17,16,17,17,17,17,17,17,17,17,17,17,17,17,17]","180","960","484.5","false","20","20","black","1","false","1","1","1920","969","k","staircase_color","","","","",""
"","","","","","html-keyboard-response","8","539252","0.0-5.0-1.0-1.0-0.0-0.0-0.0-0.0-2.0","null","","null","<p style='font-size: 60px; color: yellow'>太慢!</p>","","","","","","","","","","","","","","","","","","","","","","","","","","","","","","","","","","","","","","","","","","","","","","","",""
"","","","","","html-keyboard-response","9","540718","0.0-5.0-1.0-1.0-0.0-0.0-0.0-0.0-0.1","null","fixation","null","<p style='font-size: 48px; color: white'>+</p >","","","","","","","","","","","","","","","","","","","","","","","","","","","","","","","","","","","","","","","","","","","","","","","",""
"","","","","","rdk","10","542468","0.0-5.0-1.0-1.0-0.0-0.0-0.0-0.0-1.1","787","color_test","k","","true","[""d"",""k""]","k","3000","true","1","100","0","0","0","3","1","-1","2","300","300","[""hsl(0, 50%, 50%)"",""hsl(225, 50%, 50%)""]","[""hsl(225, 50%, 50%)"",""hsl(0, 50%, 50%)""]","0.5","0.58","0","circle","black","3","2","2","16.851063829787233","[15,17,17,17,17,17,17,17,17,18,16,17,17,16,17,17,17,17,17,17,16,17,17,17,17,17,17,17,15,17,17,17,17,17,17,17,17,17,17,17,17,16,17,17,17,17,17]","47","960","484.5","false","20","20","black","1","false","1","1","1920","969","k","staircase_color","","","","",""
"","","","","","html-keyboard-response","11","543951","0.0-5.0-1.0-1.0-0.0-0.0-0.0-0.0-2.1","null","","null","<p style='font-size: 60px; color: green'>正确!</p>","","","","","","","","","","","","","","","","","","","","","","","","","","","","","","","","","","","","","","","","","","","","","","","",""
"","","","","","html-keyboard-response","12","545424","0.0-5.0-1.0-1.0-0.0-0.0-0.0-0.0-0.2","null","fixation","null","<p style='font-size: 48px; color: white'>+</p >","","","","","","","","","","","","","","","","","","","","","","","","","","","","","","","","","","","","","","","","","","","","","","","",""
"","","","","","rdk","13","547244","0.0-5.0-1.0-1.0-0.0-0.0-0.0-0.0-1.2","859","color_test","k","","false","[""d"",""k""]","d","3000","true","1","100","0","0","0","3","1","-1","2","300","300","[""hsl(0, 50%, 50%)"",""hsl(225, 50%, 50%)""]","[""hsl(0, 50%, 50%)"",""hsl(225, 50%, 50%)""]","0.5","0.58","0","circle","black","3","2","2","16.862745098039216","[12,18,16,17,17,17,17,16,17,17,17,17,17,17,17,17,17,17,17,17,17,17,17,17,17,17,17,17,17,17,17,17,17,17,17,17,17,17,17,17,17,17,16,17,17,17,17,17,17,17,17]","51","960","484.5","false","20","20","black","1","false","1","1","1920","969","d","staircase_color","","","","",""
"","","","","","html-keyboard-response","14","548718","0.0-5.0-1.0-1.0-0.0-0.0-0.0-0.0-2.2","null","","null","<p style='font-size: 60px; color: red'>错误!</p>","","","","","","","","","","","","","","","","","","","","","","","","","","","","","","","","","","","","","","","","","","","","","","","",""
"","","","","","html-keyboard-response","15","550190","0.0-5.0-1.0-1.0-0.0-0.0-0.0-0.0-0.3","null","fixation","null","<p style='font-size: 48px; color: white'>+</p >","","","","","","","","","","","","","","","","","","","","","","","","","","","","","","","","","","","","","","","","","","","","","","","",""
"","","","","","rdk","16","552109","0.0-5.0-1.0-1.0-0.0-0.0-0.0-0.0-1.3","954","color_test","k","","false","[""d"",""k""]","d","3000","true","1","100","0","0","0","3","1","-1","2","300","300","[""hsl(0, 50%, 50%)"",""hsl(225, 50%, 50%)""]","[""hsl(0, 50%, 50%)"",""hsl(225, 50%, 50%)""]","0.5","0.58","0","circle","black","3","2","2","16.82456140350877","[9,17,17,17,17,17,17,16,17,17,17,16,17,17,17,17,17,17,17,17,17,17,17,17,17,17,17,17,17,17,17,17,17,17,17,17,17,17,17,17,17,17,17,17,17,17,17,17,17,17,17,17,17,17,17,17,17]","57","960","484.5","false","20","20","black","1","false","1","1","1920","969","d","staircase_color","","","","",""
"","","","","","html-keyboard-response","17","553592","0.0-5.0-1.0-1.0-0.0-0.0-0.0-0.0-2.3","null","","null","<p style='font-size: 60px; color: red'>错误!</p>","","","","","","","","","","","","","","","","","","","","","","","","","","","","","","","","","","","","","","","","","","","","","","","",""
"","","","","","html-keyboard-response","18","555067","0.0-5.0-1.0-1.0-0.0-0.0-0.0-0.0-0.4","null","fixation","null","<p style='font-size: 48px; color: white'>+</p >","","","","","","","","","","","","","","","","","","","","","","","","","","","","","","","","","","","","","","","","","","","","","","","",""
"","","","","","rdk","19","557477","0.0-5.0-1.0-1.0-0.0-0.0-0.0-0.0-1.4","1440","color_test","d","","true","[""d"",""k""]","d","3000","true","1","100","0","0","0","3","1","-1","2","300","300","[""hsl(0, 50%, 50%)"",""hsl(225, 50%, 50%)""]","[""hsl(0, 50%, 50%)"",""hsl(225, 50%, 50%)""]","0.5","0.58","0","circle","black","3","2","2","16.930232558139537","[11,17,17,17,17,17,17,17,17,17,17,17,17,17,17,17,17,17,17,17,17,17,17,17,17,17,17,17,17,17,17,17,17,17,17,17,17,17,17,17,17,17,17,17,17,17,17,17,17,17,17,17,17,17,17,17,17,17,17,17,17,17,17,17,17,17,17,17,17,17,17,17,17,17,17,17,17,17,17,17,17,17,17,17,17,17]","86","960","484.5","false","20","20","black","1","false","1","1","1920","969","d","staircase_color","","","","",""
"","","","","","html-keyboard-response","20","558953","0.0-5.0-1.0-1.0-0.0-0.0-0.0-0.0-2.4","null","","null","<p style='font-size: 60px; color: green'>正确!</p>","","","","","","","","","","","","","","","","","","","","","","","","","","","","","","","","","","","","","","","","","","","","","","","",""
"","","","","","html-keyboard-response","21","560417","0.0-5.0-1.0-1.0-0.0-0.0-0.0-0.0-0.5","null","fixation","null","<p style='font-size: 48px; color: white'>+</p >","","","","","","","","","","","","","","","","","","","","","","","","","","","","","","","","","","","","","","","","","","","","","","","",""
"","","","","","rdk","22","562661","0.0-5.0-1.0-1.0-0.0-0.0-0.0-0.0-1.5","1286","color_test","k","","true","[""d"",""k""]","k","3000","true","1","100","0","0","0","3","1","-1","2","300","300","[""hsl(0, 50%, 50%)"",""hsl(225, 50%, 50%)""]","[""hsl(225, 50%, 50%)"",""hsl(0, 50%, 50%)""]","0.5","0.58","0","circle","black","3","2","2","16.818181818181817","[5,17,17,17,17,17,17,17,17,17,17,17,17,17,17,17,17,17,17,17,17,17,17,17,17,17,17,17,16,17,17,17,17,16,17,17,17,17,17,17,17,17,17,17,17,17,17,17,17,17,17,17,17,17,17,17,17,17,17,17,17,17,17,17,17,17,17,17,17,17,17,17,17,17,17,17,17]","77","960","484.5","false","20","20","black","1","false","1","1","1920","969","k","staircase_color","","","","",""
"","","","","","html-keyboard-response","23","564134","0.0-5.0-1.0-1.0-0.0-0.0-0.0-0.0-2.5","null","","null","<p style='font-size: 60px; color: green'>正确!</p>","","","","","","","","","","","","","","","","","","","","","","","","","","","","","","","","","","","","","","","","","","","","","","","",""
"","","","","","html-keyboard-response","24","565599","0.0-5.0-1.0-1.0-0.0-0.0-0.0-0.0-0.6","null","fixation","null","<p style='font-size: 48px; color: white'>+</p >","","","","","","","","","","","","","","","","","","","","","","","","","","","","","","","","","","","","","","","","","","","","","","","",""
"","","","","","rdk","25","567596","0.0-5.0-1.0-1.0-0.0-0.0-0.0-0.0-1.6","1033","color_test","k","","true","[""d"",""k""]","k","3000","true","1","100","0","0","0","3","1","-1","2","300","300","[""hsl(0, 50%, 50%)"",""hsl(225, 50%, 50%)""]","[""hsl(225, 50%, 50%)"",""hsl(0, 50%, 50%)""]","0.5","0.58","0","circle","black","3","2","2","16.885245901639344","[17,16,17,17,17,17,17,17,17,17,17,17,17,17,16,17,17,17,17,17,17,17,17,17,17,16,17,17,17,17,17,17,17,17,17,17,17,17,17,17,16,17,17,17,17,17,16,17,17,17,17,17,17,17,17,17,17,17,16,17,16]","61","960","484.5","false","20","20","black","1","false","1","1","1920","969","k","staircase_color","","","","",""
"","","","","","html-keyboard-response","26","569069","0.0-5.0-1.0-1.0-0.0-0.0-0.0-0.0-2.6","null","","null","<p style='font-size: 60px; color: green'>正确!</p>","","","","","","","","","","","","","","","","","","","","","","","","","","","","","","","","","","","","","","","","","","","","","","","",""
"","","","","","html-keyboard-response","27","570531","0.0-5.0-1.0-1.0-0.0-0.0-0.0-0.0-0.7","null","fixation","null","<p style='font-size: 48px; color: white'>+</p >","","","","","","","","","","","","","","","","","","","","","","","","","","","","","","","","","","","","","","","","","","","","","","","",""
"","","","","","rdk","28","572341","0.0-5.0-1.0-1.0-0.0-0.0-0.0-0.0-1.7","838","color_test","d","","true","[""d"",""k""]","d","3000","true","1","100","0","0","0","3","1","-1","2","300","300","[""hsl(0, 50%, 50%)"",""hsl(225, 50%, 50%)""]","[""hsl(0, 50%, 50%)"",""hsl(225, 50%, 50%)""]","0.5","0.58","0","circle","black","3","2","2","16.82","[10,17,17,17,17,16,17,17,17,17,17,17,17,17,17,17,17,17,17,17,17,17,17,17,16,17,17,17,17,17,17,17,17,17,17,17,17,17,17,17,17,17,17,17,17,17,17,17,17,17]","50","960","484.5","false","20","20","black","1","false","1","1","1920","969","d","staircase_color","","","","",""
"","","","","","html-keyboard-response","29","573807","0.0-5.0-1.0-1.0-0.0-0.0-0.0-0.0-2.7","null","","null","<p style='font-size: 60px; color: green'>正确!</p>","","","","","","","","","","","","","","","","","","","","","","","","","","","","","","","","","","","","","","","","","","","","","","","",""
"","","","","","html-keyboard-response","30","575275","0.0-5.0-1.0-1.0-0.0-0.0-0.0-0.0-0.8","null","fixation","null","<p style='font-size: 48px; color: white'>+</p >","","","","","","","","","","","","","","","","","","","","","","","","","","","","","","","","","","","","","","","","","","","","","","","",""
"","","","","","rdk","31","577045","0.0-5.0-1.0-1.0-0.0-0.0-0.0-0.0-1.8","798","color_test","k","","true","[""d"",""k""]","k","3000","true","1","100","0","0","0","3","1","-1","2","300","300","[""hsl(0, 50%, 50%)"",""hsl(225, 50%, 50%)""]","[""hsl(225, 50%, 50%)"",""hsl(0, 50%, 50%)""]","0.5","0.58","0","circle","black","3","2","2","16.914893617021278","[18,15,18,16,17,17,17,17,17,17,17,16,17,17,17,17,17,17,17,16,17,17,17,17,17,17,17,17,16,17,17,17,17,17,17,17,17,17,17,17,17,17,17,17,17,17,17]","47","960","484.5","false","20","20","black","1","false","1","1","1920","969","k","staircase_color","","","","",""
"","","","","","html-keyboard-response","32","578525","0.0-5.0-1.0-1.0-0.0-0.0-0.0-0.0-2.8","null","","null","<p style='font-size: 60px; color: green'>正确!</p>","","","","","","","","","","","","","","","","","","","","","","","","","","","","","","","","","","","","","","","","","","","","","","","",""
"","","","","","html-keyboard-response","33","579984","0.0-5.0-1.0-1.0-0.0-0.0-0.0-0.0-0.9","null","fixation","null","<p style='font-size: 48px; color: white'>+</p >","","","","","","","","","","","","","","","","","","","","","","","","","","","","","","","","","","","","","","","","","","","","","","","",""
"","","","","","rdk","34","582901","0.0-5.0-1.0-1.0-0.0-0.0-0.0-0.0-1.9","1960","color_test","d","","true","[""d"",""k""]","d","3000","true","1","100","0","0","0","3","1","-1","2","300","300","[""hsl(0, 50%, 50%)"",""hsl(225, 50%, 50%)""]","[""hsl(0, 50%, 50%)"",""hsl(225, 50%, 50%)""]","0.5","0.58","0","circle","black","3","2","2","16.83050847457627","[5,16,17,17,17,17,16,17,17,17,17,17,17,17,16,17,17,17,17,17,17,17,17,17,17,17,17,17,17,17,17,17,17,17,18,16,17,17,17,17,17,17,17,17,17,17,17,17,17,17,17,17,17,17,17,17,17,17,17,17,17,17,24,8,17,17,17,17,17,17,17,17,17,17,17,17,17,17,17,17,17,17,16,17,16,17,17,17,17,17,16,17,17,17,17,17,17,17,17,17,17,17,17,17,17,17,17,17,17,17,17,17,17,17,17,17,17,17]","118","960","484.5","false","20","20","black","1","false","1","1","1920","969","d","staircase_color","","","","",""
"","","","","","html-keyboard-response","35","584369","0.0-5.0-1.0-1.0-0.0-0.0-0.0-0.0-2.9","null","","null","<p style='font-size: 60px; color: green'>正确!</p>","","","","","","","","","","","","","","","","","","","","","","","","","","","","","","","","","","","","","","","","","","","","","","","",""
"","","","","","html-keyboard-response","36","585830","0.0-5.0-1.0-1.0-0.0-0.0-0.0-0.0-0.10","null","fixation","null","<p style='font-size: 48px; color: white'>+</p >","","","","","","","","","","","","","","","","","","","","","","","","","","","","","","","","","","","","","","","","","","","","","","","",""
"","","","","","rdk","37","587951","0.0-5.0-1.0-1.0-0.0-0.0-0.0-0.0-1.10","1164","color_test","k","","false","[""d"",""k""]","d","3000","true","1","100","0","0","0","3","1","-1","2","300","300","[""hsl(0, 50%, 50%)"",""hsl(225, 50%, 50%)""]","[""hsl(0, 50%, 50%)"",""hsl(225, 50%, 50%)""]","0.5","0.58","0","circle","black","3","2","2","16.885714285714286","[10,17,17,17,17,17,17,16,17,17,17,17,17,17,17,17,17,17,17,16,17,17,17,17,17,17,17,17,17,17,17,17,17,17,17,17,17,17,17,17,17,17,17,17,17,17,17,17,17,17,17,17,17,17,17,17,17,17,17,17,17,17,17,17,17,17,17,17,17,18]","70","960","484.5","false","20","20","black","1","false","1","1","1920","969","d","staircase_color","","","","",""
"","","","","","html-keyboard-response","38","589419","0.0-5.0-1.0-1.0-0.0-0.0-0.0-0.0-2.10","null","","null","<p style='font-size: 60px; color: red'>错误!</p>","","","","","","","","","","","","","","","","","","","","","","","","","","","","","","","","","","","","","","","","","","","","","","","",""
"","","","","","html-keyboard-response","39","590891","0.0-5.0-1.0-1.0-0.0-0.0-0.0-0.0-0.11","null","fixation","null","<p style='font-size: 48px; color: white'>+</p >","","","","","","","","","","","","","","","","","","","","","","","","","","","","","","","","","","","","","","","","","","","","","","","",""
"","","","","","rdk","40","592636","0.0-5.0-1.0-1.0-0.0-0.0-0.0-0.0-1.11","779","color_test","k","","true","[""d"",""k""]","k","3000","true","1","100","0","0","0","3","1","-1","2","300","300","[""hsl(0, 50%, 50%)"",""hsl(225, 50%, 50%)""]","[""hsl(225, 50%, 50%)"",""hsl(0, 50%, 50%)""]","0.5","0.58","0","circle","black","3","2","2","16.70212765957447","[6,16,17,17,17,17,17,16,17,17,17,17,17,17,17,17,17,17,17,17,17,17,17,17,17,17,17,17,17,17,17,17,17,17,17,17,17,17,17,17,17,16,17,17,17,17,17]","47","960","484.5","false","20","20","black","1","false","1","1","1920","969","k","staircase_color","","","","",""
"","","","","","html-keyboard-response","41","594102","0.0-5.0-1.0-1.0-0.0-0.0-0.0-0.0-2.11","null","","null","<p style='font-size: 60px; color: green'>正确!</p>","","","","","","","","","","","","","","","","","","","","","","","","","","","","","","","","","","","","","","","","","","","","","","","",""
"","","","","","html-keyboard-response","42","597079","0.0-5.0-1.0-1.0-0.0-0.0-0.0-1.0","null","","null","<p style='font-size: 35px; color: white'>您的正确率为： 67% 。平均反应时为：991毫秒。</p>","","","","","","","","","","","","","","","","","","","","","","","","","","","","","","","","","","","","","","","","","","","","","","","",""
"","","","","","html-keyboard-response","43","598555","0.0-5.0-1.0-1.0-0.0-1.0-0.0-0.0-0.0","null","fixation","null","<p style='font-size: 48px; color: white'>+</p >","","","","","","","","","","","","","","","","","","","","","","","","","","","","","","","","","","","","","","","","","","","","","","","",""
"","","","","","rdk","44","600640","0.0-5.0-1.0-1.0-0.0-1.0-0.0-0.0-1.0","1116","color_test","d","","true","[""d"",""k""]","d","3000","true","1","100","0","0","0","3","1","-1","2","300","300","[""hsl(0, 50%, 50%)"",""hsl(225, 50%, 50%)""]","[""hsl(0, 50%, 50%)"",""hsl(225, 50%, 50%)""]","0.5","0.56","0","circle","black","3","2","2","16.865671641791046","[9,17,17,17,17,17,17,17,17,17,17,17,17,17,17,17,17,17,17,17,17,17,17,24,9,17,17,17,17,17,17,17,17,17,17,17,17,17,17,17,17,17,17,17,17,17,17,17,17,17,17,17,17,17,17,17,17,17,17,17,17,17,17,17,17,17,17]","67","960","484.5","false","20","20","black","1","false","1","1","1920","969","d","staircase_color","","","","",""
"","","","","","html-keyboard-response","45","602105","0.0-5.0-1.0-1.0-0.0-1.0-0.0-0.0-2.0","null","","null","<p style='font-size: 60px; color: green'>正确!</p>","","","","","","","","","","","","","","","","","","","","","","","","","","","","","","","","","","","","","","","","","","","","","","","",""
"","","","","","html-keyboard-response","46","603584","0.0-5.0-1.0-1.0-0.0-1.0-0.0-0.0-0.1","null","fixation","null","<p style='font-size: 48px; color: white'>+</p >","","","","","","","","","","","","","","","","","","","","","","","","","","","","","","","","","","","","","","","","","","","","","","","",""
"","","","","","rdk","47","605256","0.0-5.0-1.0-1.0-0.0-1.0-0.0-0.0-1.1","715","color_test","k","","true","[""d"",""k""]","k","3000","true","1","100","0","0","0","3","1","-1","2","300","300","[""hsl(0, 50%, 50%)"",""hsl(225, 50%, 50%)""]","[""hsl(225, 50%, 50%)"",""hsl(0, 50%, 50%)""]","0.5","0.56","0","circle","black","3","2","2","16.790697674418606","[9,17,17,17,17,17,17,17,17,17,17,17,17,17,17,17,17,17,17,17,17,17,17,17,17,17,17,17,17,16,17,17,17,17,17,17,17,17,17,17,17,17,17]","43","960","484.5","false","20","20","black","1","false","1","1","1920","969","k","staircase_color","","","","",""
"","","","","","html-keyboard-response","48","606721","0.0-5.0-1.0-1.0-0.0-1.0-0.0-0.0-2.1","null","","null","<p style='font-size: 60px; color: green'>正确!</p>","","","","","","","","","","","","","","","","","","","","","","","","","","","","","","","","","","","","","","","","","","","","","","","",""
"","","","","","html-keyboard-response","49","608205","0.0-5.0-1.0-1.0-0.0-1.0-0.0-0.0-0.2","null","fixation","null","<p style='font-size: 48px; color: white'>+</p >","","","","","","","","","","","","","","","","","","","","","","","","","","","","","","","","","","","","","","","","","","","","","","","",""
"","","","","","rdk","50","610138","0.0-5.0-1.0-1.0-0.0-1.0-0.0-0.0-1.2","970","color_test","d","","true","[""d"",""k""]","d","3000","true","1","100","0","0","0","3","1","-1","2","300","300","[""hsl(0, 50%, 50%)"",""hsl(225, 50%, 50%)""]","[""hsl(0, 50%, 50%)"",""hsl(225, 50%, 50%)""]","0.5","0.56","0","circle","black","3","2","2","16.913793103448278","[17,17,16,17,17,16,17,17,17,17,17,17,17,17,16,17,17,16,17,17,17,17,16,17,17,17,17,17,17,17,17,17,17,17,17,17,17,17,17,17,17,17,17,17,17,17,17,17,17,17,17,17,17,17,17,17,17,17]","58","960","484.5","false","20","20","black","1","false","1","1","1920","969","d","staircase_color","","","","",""
"","","","","","html-keyboard-response","51","611612","0.0-5.0-1.0-1.0-0.0-1.0-0.0-0.0-2.2","null","","null","<p style='font-size: 60px; color: green'>正确!</p>","","","","","","","","","","","","","","","","","","","","","","","","","","","","","","","","","","","","","","","","","","","","","","","",""
"","","","","","html-keyboard-response","52","613087","0.0-5.0-1.0-1.0-0.0-1.0-0.0-0.0-0.3","null","fixation","null","<p style='font-size: 48px; color: white'>+</p >","","","","","","","","","","","","","","","","","","","","","","","","","","","","","","","","","","","","","","","","","","","","","","","",""
"","","","","","rdk","53","614776","0.0-5.0-1.0-1.0-0.0-1.0-0.0-0.0-1.3","726","color_test","k","","true","[""d"",""k""]","k","3000","true","1","100","0","0","0","3","1","-1","2","300","300","[""hsl(0, 50%, 50%)"",""hsl(225, 50%, 50%)""]","[""hsl(225, 50%, 50%)"",""hsl(0, 50%, 50%)""]","0.5","0.56","0","circle","black","3","2","2","16.906976744186046","[16,17,17,17,17,17,17,17,16,17,17,17,17,17,17,17,17,17,17,17,17,17,17,17,17,17,17,24,9,17,17,17,17,17,17,17,17,17,17,17,16,17,17]","43","960","484.5","false","20","20","black","1","false","1","1","1920","969","k","staircase_color","","","","",""
"","","","","","html-keyboard-response","54","616244","0.0-5.0-1.0-1.0-0.0-1.0-0.0-0.0-2.3","null","","null","<p style='font-size: 60px; color: green'>正确!</p>","","","","","","","","","","","","","","","","","","","","","","","","","","","","","","","","","","","","","","","","","","","","","","","",""
"","","","","","html-keyboard-response","55","617712","0.0-5.0-1.0-1.0-0.0-1.0-0.0-0.0-0.4","null","fixation","null","<p style='font-size: 48px; color: white'>+</p >","","","","","","","","","","","","","","","","","","","","","","","","","","","","","","","","","","","","","","","","","","","","","","","",""
"","","","","","rdk","56","619496","0.0-5.0-1.0-1.0-0.0-1.0-0.0-0.0-1.4","823","color_test","d","","true","[""d"",""k""]","d","3000","true","1","100","0","0","0","3","1","-1","2","300","300","[""hsl(0, 50%, 50%)"",""hsl(225, 50%, 50%)""]","[""hsl(0, 50%, 50%)"",""hsl(225, 50%, 50%)""]","0.5","0.56","0","circle","black","3","2","2","16.816326530612244","[11,17,16,17,17,17,17,17,17,17,17,17,17,17,17,17,17,17,17,17,17,16,17,17,16,17,17,17,17,17,17,17,17,17,17,17,17,17,17,17,17,17,17,17,17,17,17,17,17]","49","960","484.5","false","20","20","black","1","false","1","1","1920","969","d","staircase_color","","","","",""
"","","","","","html-keyboard-response","57","620968","0.0-5.0-1.0-1.0-0.0-1.0-0.0-0.0-2.4","null","","null","<p style='font-size: 60px; color: green'>正确!</p>","","","","","","","","","","","","","","","","","","","","","","","","","","","","","","","","","","","","","","","","","","","","","","","",""
"","","","","","html-keyboard-response","58","622438","0.0-5.0-1.0-1.0-0.0-1.0-0.0-0.0-0.5","null","fixation","null","<p style='font-size: 48px; color: white'>+</p >","","","","","","","","","","","","","","","","","","","","","","","","","","","","","","","","","","","","","","","","","","","","","","","",""
"","","","","","rdk","59","624592","0.0-5.0-1.0-1.0-0.0-1.0-0.0-0.0-1.5","1193","color_test","d","","true","[""d"",""k""]","d","3000","true","1","100","0","0","0","3","1","-1","2","300","300","[""hsl(0, 50%, 50%)"",""hsl(225, 50%, 50%)""]","[""hsl(0, 50%, 50%)"",""hsl(225, 50%, 50%)""]","0.5","0.56","0","circle","black","3","2","2","16.76388888888889","[3,15,17,17,17,17,17,17,17,17,17,17,17,16,17,17,17,17,17,17,17,17,17,17,17,17,17,17,17,17,17,17,17,17,17,17,17,17,17,17,17,17,17,17,17,17,17,17,17,17,17,17,17,17,17,17,17,17,17,17,17,17,17,17,17,17,17,17,17,17,17,17]","72","960","484.5","false","20","20","black","1","false","1","1","1920","969","d","staircase_color","","","","",""
"","","","","","html-keyboard-response","60","626073","0.0-5.0-1.0-1.0-0.0-1.0-0.0-0.0-2.5","null","","null","<p style='font-size: 60px; color: green'>正确!</p>","","","","","","","","","","","","","","","","","","","","","","","","","","","","","","","","","","","","","","","","","","","","","","","",""
"","","","","","html-keyboard-response","61","627536","0.0-5.0-1.0-1.0-0.0-1.0-0.0-0.0-0.6","null","fixation","null","<p style='font-size: 48px; color: white'>+</p >","","","","","","","","","","","","","","","","","","","","","","","","","","","","","","","","","","","","","","","","","","","","","","","",""
"","","","","","rdk","62","630090","0.0-5.0-1.0-1.0-0.0-1.0-0.0-0.0-1.6","1596","color_test","d","","false","[""d"",""k""]","k","3000","true","1","100","0","0","0","3","1","-1","2","300","300","[""hsl(0, 50%, 50%)"",""hsl(225, 50%, 50%)""]","[""hsl(225, 50%, 50%)"",""hsl(0, 50%, 50%)""]","0.5","0.56","0","circle","black","3","2","2","16.71875","[1,15,17,17,17,17,17,17,17,17,17,17,17,17,17,16,17,17,17,17,16,17,17,17,17,17,17,17,17,17,17,17,17,16,17,17,17,17,17,17,17,17,17,17,17,17,17,17,17,17,17,17,17,16,17,17,17,17,17,17,16,17,17,17,17,17,17,17,17,16,17,17,17,17,17,17,17,17,17,15,17,17,17,17,17,17,17,16,17,17,17,17,17,17,17,17]","96","960","484.5","false","20","20","black","1","false","1","1","1920","969","k","staircase_color","","","","",""
"","","","","","html-keyboard-response","63","631561","0.0-5.0-1.0-1.0-0.0-1.0-0.0-0.0-2.6","null","","null","<p style='font-size: 60px; color: red'>错误!</p>","","","","","","","","","","","","","","","","","","","","","","","","","","","","","","","","","","","","","","","","","","","","","","","",""
"","","","","","html-keyboard-response","64","633035","0.0-5.0-1.0-1.0-0.0-1.0-0.0-0.0-0.7","null","fixation","null","<p style='font-size: 48px; color: white'>+</p >","","","","","","","","","","","","","","","","","","","","","","","","","","","","","","","","","","","","","","","","","","","","","","","",""
"","","","","","rdk","65","635384","0.0-5.0-1.0-1.0-0.0-1.0-0.0-0.0-1.7","1387","color_test","k","","true","[""d"",""k""]","k","3000","true","1","100","0","0","0","3","1","-1","2","300","300","[""hsl(0, 50%, 50%)"",""hsl(225, 50%, 50%)""]","[""hsl(225, 50%, 50%)"",""hsl(0, 50%, 50%)""]","0.5","0.56","0","circle","black","3","2","2","16.759036144578314","[3,16,17,17,17,17,17,17,17,17,17,17,17,17,17,17,17,17,17,17,17,17,17,17,17,17,17,17,17,17,17,17,17,17,17,17,17,17,17,17,17,17,16,17,17,17,17,17,17,17,17,17,17,17,17,17,17,17,17,17,17,17,17,17,15,16,17,16,17,17,17,17,17,17,17,17,17,17,17,17,17,17,17]","83","960","484.5","false","20","20","black","1","false","1","1","1920","969","k","staircase_color","","","","",""
"","","","","","html-keyboard-response","66","636854","0.0-5.0-1.0-1.0-0.0-1.0-0.0-0.0-2.7","null","","null","<p style='font-size: 60px; color: green'>正确!</p>","","","","","","","","","","","","","","","","","","","","","","","","","","","","","","","","","","","","","","","","","","","","","","","",""
"","","","","","html-keyboard-response","67","638330","0.0-5.0-1.0-1.0-0.0-1.0-0.0-0.0-0.8","null","fixation","null","<p style='font-size: 48px; color: white'>+</p >","","","","","","","","","","","","","","","","","","","","","","","","","","","","","","","","","","","","","","","","","","","","","","","",""
"","","","","","rdk","68","640337","0.0-5.0-1.0-1.0-0.0-1.0-0.0-0.0-1.8","1044","color_test","d","","true","[""d"",""k""]","d","3000","true","1","100","0","0","0","3","1","-1","2","300","300","[""hsl(0, 50%, 50%)"",""hsl(225, 50%, 50%)""]","[""hsl(0, 50%, 50%)"",""hsl(225, 50%, 50%)""]","0.5","0.56","0","circle","black","3","2","2","16.761904761904763","[7,17,17,17,17,16,17,17,17,17,17,17,17,17,17,17,17,17,17,17,16,17,17,17,17,17,17,17,17,17,17,17,17,17,17,17,17,17,17,17,17,17,17,15,17,16,17,17,17,17,17,17,17,17,17,17,17,17,17,17,17,17,17]","63","960","484.5","false","20","20","black","1","false","1","1","1920","969","d","staircase_color","","","","",""
"","","","","","html-keyboard-response","69","641809","0.0-5.0-1.0-1.0-0.0-1.0-0.0-0.0-2.8","null","","null","<p style='font-size: 60px; color: green'>正确!</p>","","","","","","","","","","","","","","","","","","","","","","","","","","","","","","","","","","","","","","","","","","","","","","","",""
"","","","","","html-keyboard-response","70","643295","0.0-5.0-1.0-1.0-0.0-1.0-0.0-0.0-0.9","null","fixation","null","<p style='font-size: 48px; color: white'>+</p >","","","","","","","","","","","","","","","","","","","","","","","","","","","","","","","","","","","","","","","","","","","","","","","",""
"","","","","","rdk","71","645104","0.0-5.0-1.0-1.0-0.0-1.0-0.0-0.0-1.9","842","color_test","k","","true","[""d"",""k""]","k","3000","true","1","100","0","0","0","3","1","-1","2","300","300","[""hsl(0, 50%, 50%)"",""hsl(225, 50%, 50%)""]","[""hsl(225, 50%, 50%)"",""hsl(0, 50%, 50%)""]","0.5","0.56","0","circle","black","3","2","2","16.686274509803923","[5,16,17,17,17,17,17,17,17,17,16,17,17,17,17,17,17,17,17,17,17,17,17,17,17,17,17,17,17,17,17,17,17,17,17,17,17,17,17,17,17,17,17,17,17,17,17,17,15,17,17]","51","960","484.5","false","20","20","black","1","false","1","1","1920","969","k","staircase_color","","","","",""
"","","","","","html-keyboard-response","72","646579","0.0-5.0-1.0-1.0-0.0-1.0-0.0-0.0-2.9","null","","null","<p style='font-size: 60px; color: green'>正确!</p>","","","","","","","","","","","","","","","","","","","","","","","","","","","","","","","","","","","","","","","","","","","","","","","",""
"","","","","","html-keyboard-response","73","648047","0.0-5.0-1.0-1.0-0.0-1.0-0.0-0.0-0.10","null","fixation","null","<p style='font-size: 48px; color: white'>+</p >","","","","","","","","","","","","","","","","","","","","","","","","","","","","","","","","","","","","","","","","","","","","","","","",""
"","","","","","rdk","74","650409","0.0-5.0-1.0-1.0-0.0-1.0-0.0-0.0-1.10","1397","color_test","d","","true","[""d"",""k""]","d","3000","true","1","100","0","0","0","3","1","-1","2","300","300","[""hsl(0, 50%, 50%)"",""hsl(225, 50%, 50%)""]","[""hsl(0, 50%, 50%)"",""hsl(225, 50%, 50%)""]","0.5","0.56","0","circle","black","3","2","2","16.75","[6,14,17,17,17,17,17,17,17,17,17,17,17,17,17,17,17,17,17,17,17,16,17,17,17,17,17,17,17,17,17,17,17,17,17,17,17,16,17,16,17,17,16,17,17,16,17,17,17,17,17,17,17,17,17,17,17,17,17,17,17,17,16,17,17,17,17,17,17,17,17,16,17,17,17,17,17,17,17,17,17,17,17,17]","84","960","484.5","false","20","20","black","1","false","1","1","1920","969","d","staircase_color","","","","",""
"","","","","","html-keyboard-response","75","651887","0.0-5.0-1.0-1.0-0.0-1.0-0.0-0.0-2.10","null","","null","<p style='font-size: 60px; color: green'>正确!</p>","","","","","","","","","","","","","","","","","","","","","","","","","","","","","","","","","","","","","","","","","","","","","","","",""
"","","","","","html-keyboard-response","76","653352","0.0-5.0-1.0-1.0-0.0-1.0-0.0-0.0-0.11","null","fixation","null","<p style='font-size: 48px; color: white'>+</p >","","","","","","","","","","","","","","","","","","","","","","","","","","","","","","","","","","","","","","","","","","","","","","","",""
"","","","","","rdk","77","655297","0.0-5.0-1.0-1.0-0.0-1.0-0.0-0.0-1.11","983","color_test","k","","true","[""d"",""k""]","k","3000","true","1","100","0","0","0","3","1","-1","2","300","300","[""hsl(0, 50%, 50%)"",""hsl(225, 50%, 50%)""]","[""hsl(225, 50%, 50%)"",""hsl(0, 50%, 50%)""]","0.5","0.56","0","circle","black","3","2","2","16.694915254237287","[2,17,17,17,17,17,17,17,17,17,17,17,17,17,17,17,17,17,17,17,17,17,17,17,17,17,17,17,17,17,17,17,17,17,17,17,17,17,17,17,17,17,17,17,17,15,17,17,17,16,17,17,17,17,17,17,17,17,17]","59","960","484.5","false","20","20","black","1","false","1","1","1920","969","k","staircase_color","","","","",""
"","","","","","html-keyboard-response","78","656769","0.0-5.0-1.0-1.0-0.0-1.0-0.0-0.0-2.11","null","","null","<p style='font-size: 60px; color: green'>正确!</p>","","","","","","","","","","","","","","","","","","","","","","","","","","","","","","","","","","","","","","","","","","","","","","","",""
"","","","","","html-keyboard-response","79","659743","0.0-5.0-1.0-1.0-0.0-1.0-0.0-1.0","null","","null","<p style='font-size: 35px; color: white'>您的正确率为： 92% 。平均反应时为：1066毫秒。</p>","","","","","","","","","","","","","","","","","","","","","","","","","","","","","","","","","","","","","","","","","","","","","","","",""
"","","","","","html-keyboard-response","80","661227","0.0-5.0-1.0-1.0-0.0-2.0-0.0-0.0-0.0","null","fixation","null","<p style='font-size: 48px; color: white'>+</p >","","","","","","","","","","","","","","","","","","","","","","","","","","","","","","","","","","","","","","","","","","","","","","","",""
"","","","","","rdk","81","662985","0.0-5.0-1.0-1.0-0.0-2.0-0.0-0.0-1.0","794","color_test","k","","true","[""d"",""k""]","k","3000","true","1","100","0","0","0","3","1","-1","2","300","300","[""hsl(0, 50%, 50%)"",""hsl(225, 50%, 50%)""]","[""hsl(225, 50%, 50%)"",""hsl(0, 50%, 50%)""]","0.5","0.54","0","circle","black","3","2","2","16.80851063829787","[9,17,17,17,17,17,17,17,17,17,17,17,17,17,17,16,17,17,17,17,17,17,17,17,17,17,17,17,17,17,17,17,17,17,17,17,17,17,17,17,17,17,17,17,17,17,17]","47","960","484.5","false","20","20","black","1","false","1","1","1920","969","k","staircase_color","","","","",""
"","","","","","html-keyboard-response","82","664457","0.0-5.0-1.0-1.0-0.0-2.0-0.0-0.0-2.0","null","","null","<p style='font-size: 60px; color: green'>正确!</p>","","","","","","","","","","","","","","","","","","","","","","","","","","","","","","","","","","","","","","","","","","","","","","","",""
"","","","","","html-keyboard-response","83","665937","0.0-5.0-1.0-1.0-0.0-2.0-0.0-0.0-0.1","null","fixation","null","<p style='font-size: 48px; color: white'>+</p >","","","","","","","","","","","","","","","","","","","","","","","","","","","","","","","","","","","","","","","","","","","","","","","",""
"","","","","","rdk","84","667657","0.0-5.0-1.0-1.0-0.0-2.0-0.0-0.0-1.1","765","color_test","d","","true","[""d"",""k""]","d","3000","true","1","100","0","0","0","3","1","-1","2","300","300","[""hsl(0, 50%, 50%)"",""hsl(225, 50%, 50%)""]","[""hsl(0, 50%, 50%)"",""hsl(225, 50%, 50%)""]","0.5","0.54","0","circle","black","3","2","2","16.695652173913043","[7,17,17,16,17,17,17,17,17,17,17,17,16,16,17,16,17,17,17,17,17,17,17,17,17,17,17,17,17,17,17,17,17,17,17,17,17,17,17,17,17,17,17,17,17,17]","46","960","484.5","false","20","20","black","1","false","1","1","1920","969","d","staircase_color","","","","",""
"","","","","","html-keyboard-response","85","669135","0.0-5.0-1.0-1.0-0.0-2.0-0.0-0.0-2.1","null","","null","<p style='font-size: 60px; color: green'>正确!</p>","","","","","","","","","","","","","","","","","","","","","","","","","","","","","","","","","","","","","","","","","","","","","","","",""
"","","","","","html-keyboard-response","86","670606","0.0-5.0-1.0-1.0-0.0-2.0-0.0-0.0-0.2","null","fixation","null","<p style='font-size: 48px; color: white'>+</p >","","","","","","","","","","","","","","","","","","","","","","","","","","","","","","","","","","","","","","","","","","","","","","","",""
"","","","","","rdk","87","672416","0.0-5.0-1.0-1.0-0.0-2.0-0.0-0.0-1.2","853","color_test","d","","true","[""d"",""k""]","d","3000","true","1","100","0","0","0","3","1","-1","2","300","300","[""hsl(0, 50%, 50%)"",""hsl(225, 50%, 50%)""]","[""hsl(0, 50%, 50%)"",""hsl(225, 50%, 50%)""]","0.5","0.54","0","circle","black","3","2","2","16.627450980392158","[6,14,17,17,17,17,17,17,17,17,16,17,17,17,17,17,17,16,17,17,17,17,17,17,17,17,17,17,17,17,17,17,17,17,17,17,17,17,16,17,17,17,17,17,17,16,17,17,17,16,17]","51","960","484.5","false","20","20","black","1","false","1","1","1920","969","d","staircase_color","","","","",""
"","","","","","html-keyboard-response","88","673893","0.0-5.0-1.0-1.0-0.0-2.0-0.0-0.0-2.2","null","","null","<p style='font-size: 60px; color: green'>正确!</p>","","","","","","","","","","","","","","","","","","","","","","","","","","","","","","","","","","","","","","","","","","","","","","","",""
"","","","","","html-keyboard-response","89","675353","0.0-5.0-1.0-1.0-0.0-2.0-0.0-0.0-0.3","null","fixation","null","<p style='font-size: 48px; color: white'>+</p >","","","","","","","","","","","","","","","","","","","","","","","","","","","","","","","","","","","","","","","","","","","","","","","",""
"","","","","","rdk","90","676955","0.0-5.0-1.0-1.0-0.0-2.0-0.0-0.0-1.3","630","color_test","d","","false","[""d"",""k""]","k","3000","true","1","100","0","0","0","3","1","-1","2","300","300","[""hsl(0, 50%, 50%)"",""hsl(225, 50%, 50%)""]","[""hsl(225, 50%, 50%)"",""hsl(0, 50%, 50%)""]","0.5","0.54","0","circle","black","3","2","2","16.789473684210527","[8,17,17,17,17,18,17,17,17,17,17,17,17,17,17,17,17,17,17,17,17,17,17,17,17,17,17,17,17,17,17,17,17,17,17,17,17,17]","38","960","484.5","false","20","20","black","1","false","1","1","1920","969","k","staircase_color","","","","",""
"","","","","","html-keyboard-response","91","678433","0.0-5.0-1.0-1.0-0.0-2.0-0.0-0.0-2.3","null","","null","<p style='font-size: 60px; color: red'>错误!</p>","","","","","","","","","","","","","","","","","","","","","","","","","","","","","","","","","","","","","","","","","","","","","","","",""
"","","","","","html-keyboard-response","92","679913","0.0-5.0-1.0-1.0-0.0-2.0-0.0-0.0-0.4","null","fixation","null","<p style='font-size: 48px; color: white'>+</p >","","","","","","","","","","","","","","","","","","","","","","","","","","","","","","","","","","","","","","","","","","","","","","","",""
"","","","","","rdk","93","682201","0.0-5.0-1.0-1.0-0.0-2.0-0.0-0.0-1.4","1321","color_test","d","","true","[""d"",""k""]","d","3000","true","1","100","0","0","0","3","1","-1","2","300","300","[""hsl(0, 50%, 50%)"",""hsl(225, 50%, 50%)""]","[""hsl(0, 50%, 50%)"",""hsl(225, 50%, 50%)""]","0.5","0.54","0","circle","black","3","2","2","16.79746835443038","[4,17,17,17,17,17,17,17,17,17,17,17,17,17,17,17,17,17,17,17,17,17,17,17,17,17,17,17,17,17,17,17,17,17,17,17,17,17,17,17,17,17,17,17,17,17,17,17,17,17,17,17,17,17,17,17,17,17,17,17,17,17,17,17,17,17,17,15,17,17,17,17,17,16,17,17,17,17,17]","79","960","484.5","false","20","20","black","1","false","1","1","1920","969","d","staircase_color","","","","",""
"","","","","","html-keyboard-response","94","683673","0.0-5.0-1.0-1.0-0.0-2.0-0.0-0.0-2.4","null","","null","<p style='font-size: 60px; color: green'>正确!</p>","","","","","","","","","","","","","","","","","","","","","","","","","","","","","","","","","","","","","","","","","","","","","","","",""
"","","","","","html-keyboard-response","95","685152","0.0-5.0-1.0-1.0-0.0-2.0-0.0-0.0-0.5","null","fixation","null","<p style='font-size: 48px; color: white'>+</p >","","","","","","","","","","","","","","","","","","","","","","","","","","","","","","","","","","","","","","","","","","","","","","","",""
"","","","","","rdk","96","687417","0.0-5.0-1.0-1.0-0.0-2.0-0.0-0.0-1.5","1293","color_test","k","","true","[""d"",""k""]","k","3000","true","1","100","0","0","0","3","1","-1","2","300","300","[""hsl(0, 50%, 50%)"",""hsl(225, 50%, 50%)""]","[""hsl(225, 50%, 50%)"",""hsl(0, 50%, 50%)""]","0.5","0.54","0","circle","black","3","2","2","16.90909090909091","[10,17,17,17,17,17,17,17,17,17,17,17,17,17,17,17,17,17,17,17,17,17,17,17,17,17,17,17,17,17,17,17,17,17,17,17,17,17,17,17,17,17,17,17,17,17,17,17,17,17,17,17,17,17,17,17,17,17,17,17,17,17,17,17,17,17,17,17,17,17,17,17,17,17,17,17,17]","77","960","484.5","false","20","20","black","1","false","1","1","1920","969","k","staircase_color","","","","",""
"","","","","","html-keyboard-response","97","688891","0.0-5.0-1.0-1.0-0.0-2.0-0.0-0.0-2.5","null","","null","<p style='font-size: 60px; color: green'>正确!</p>","","","","","","","","","","","","","","","","","","","","","","","","","","","","","","","","","","","","","","","","","","","","","","","",""
"","","","","","html-keyboard-response","98","690361","0.0-5.0-1.0-1.0-0.0-2.0-0.0-0.0-0.6","null","fixation","null","<p style='font-size: 48px; color: white'>+</p >","","","","","","","","","","","","","","","","","","","","","","","","","","","","","","","","","","","","","","","","","","","","","","","",""
"","","","","","rdk","99","692649","0.0-5.0-1.0-1.0-0.0-2.0-0.0-0.0-1.6","1323","color_test","k","","false","[""d"",""k""]","d","3000","true","1","100","0","0","0","3","1","-1","2","300","300","[""hsl(0, 50%, 50%)"",""hsl(225, 50%, 50%)""]","[""hsl(0, 50%, 50%)"",""hsl(225, 50%, 50%)""]","0.5","0.54","0","circle","black","3","2","2","16.82278481012658","[7,17,17,17,17,17,15,17,17,16,17,17,17,17,17,17,17,17,17,17,17,17,17,17,17,17,17,17,17,17,17,17,17,17,17,17,17,17,17,17,17,17,17,17,17,17,17,17,17,17,17,17,17,17,17,17,17,17,17,17,17,17,17,17,17,17,17,17,17,17,17,17,17,17,17,17,16,17,17]","79","960","484.5","false","20","20","black","1","false","1","1","1920","969","d","staircase_color","","","","",""
"","","","","","html-keyboard-response","100","694123","0.0-5.0-1.0-1.0-0.0-2.0-0.0-0.0-2.6","null","","null","<p style='font-size: 60px; color: red'>错误!</p>","","","","","","","","","","","","","","","","","","","","","","","","","","","","","","","","","","","","","","","","","","","","","","","",""
"","","","","","html-keyboard-response","101","695606","0.0-5.0-1.0-1.0-0.0-2.0-0.0-0.0-0.7","null","fixation","null","<p style='font-size: 48px; color: white'>+</p >","","","","","","","","","","","","","","","","","","","","","","","","","","","","","","","","","","","","","","","","","","","","","","","",""
"","","","","","rdk","102","697522","0.0-5.0-1.0-1.0-0.0-2.0-0.0-0.0-1.7","959","color_test","k","","true","[""d"",""k""]","k","3000","true","1","100","0","0","0","3","1","-1","2","300","300","[""hsl(0, 50%, 50%)"",""hsl(225, 50%, 50%)""]","[""hsl(225, 50%, 50%)"",""hsl(0, 50%, 50%)""]","0.5","0.54","0","circle","black","3","2","2","16.586206896551722","[1,14,17,17,17,17,17,17,17,16,17,17,17,17,17,17,17,17,17,17,16,17,17,17,17,17,17,17,16,17,17,17,17,16,17,17,17,17,17,17,17,17,17,17,17,17,17,17,17,17,16,17,17,17,17,17,17,17]","58","960","484.5","false","20","20","black","1","false","1","1","1920","969","k","staircase_color","","","","",""
"","","","","","html-keyboard-response","103","698999","0.0-5.0-1.0-1.0-0.0-2.0-0.0-0.0-2.7","null","","null","<p style='font-size: 60px; color: green'>正确!</p>","","","","","","","","","","","","","","","","","","","","","","","","","","","","","","","","","","","","","","","","","","","","","","","",""
"","","","","","html-keyboard-response","104","700474","0.0-5.0-1.0-1.0-0.0-2.0-0.0-0.0-0.8","null","fixation","null","<p style='font-size: 48px; color: white'>+</p >","","","","","","","","","","","","","","","","","","","","","","","","","","","","","","","","","","","","","","","","","","","","","","","",""
"","","","","","rdk","105","702138","0.0-5.0-1.0-1.0-0.0-2.0-0.0-0.0-1.8","705","color_test","k","","true","[""d"",""k""]","k","3000","true","1","100","0","0","0","3","1","-1","2","300","300","[""hsl(0, 50%, 50%)"",""hsl(225, 50%, 50%)""]","[""hsl(225, 50%, 50%)"",""hsl(0, 50%, 50%)""]","0.5","0.54","0","circle","black","3","2","2","16.6046511627907","[2,17,16,17,17,17,17,17,17,17,17,17,17,17,17,17,17,17,17,17,17,17,17,17,17,17,17,17,17,17,17,16,17,17,17,17,17,17,17,17,17,17,17]","43","960","484.5","false","20","20","black","1","false","1","1","1920","969","k","staircase_color","","","","",""
"","","","","","html-keyboard-response","106","703596","0.0-5.0-1.0-1.0-0.0-2.0-0.0-0.0-2.8","null","","null","<p style='font-size: 60px; color: green'>正确!</p>","","","","","","","","","","","","","","","","","","","","","","","","","","","","","","","","","","","","","","","","","","","","","","","",""
"","","","","","html-keyboard-response","107","705071","0.0-5.0-1.0-1.0-0.0-2.0-0.0-0.0-0.9","null","fixation","null","<p style='font-size: 48px; color: white'>+</p >","","","","","","","","","","","","","","","","","","","","","","","","","","","","","","","","","","","","","","","","","","","","","","","",""
"","","","","","rdk","108","706793","0.0-5.0-1.0-1.0-0.0-2.0-0.0-0.0-1.9","764","color_test","d","","true","[""d"",""k""]","d","3000","true","1","100","0","0","0","3","1","-1","2","300","300","[""hsl(0, 50%, 50%)"",""hsl(225, 50%, 50%)""]","[""hsl(0, 50%, 50%)"",""hsl(225, 50%, 50%)""]","0.5","0.54","0","circle","black","3","2","2","16.717391304347824","[5,16,17,17,17,17,17,17,17,17,17,17,17,17,17,17,17,17,17,17,17,17,17,17,17,17,17,17,17,17,17,17,17,17,17,17,17,17,17,17,17,17,17,17,17,17]","46","960","484.5","false","20","20","black","1","false","1","1","1920","969","d","staircase_color","","","","",""
"","","","","","html-keyboard-response","109","708271","0.0-5.0-1.0-1.0-0.0-2.0-0.0-0.0-2.9","null","","null","<p style='font-size: 60px; color: green'>正确!</p>","","","","","","","","","","","","","","","","","","","","","","","","","","","","","","","","","","","","","","","","","","","","","","","",""
"","","","","","html-keyboard-response","110","709739","0.0-5.0-1.0-1.0-0.0-2.0-0.0-0.0-0.10","null","fixation","null","<p style='font-size: 48px; color: white'>+</p >","","","","","","","","","","","","","","","","","","","","","","","","","","","","","","","","","","","","","","","","","","","","","","","",""
"","","","","","rdk","111","712785","0.0-5.0-1.0-1.0-0.0-2.0-0.0-0.0-1.10","2085","color_test","k","","false","[""d"",""k""]","d","3000","true","1","100","0","0","0","3","1","-1","2","300","300","[""hsl(0, 50%, 50%)"",""hsl(225, 50%, 50%)""]","[""hsl(0, 50%, 50%)"",""hsl(225, 50%, 50%)""]","0.5","0.54","0","circle","black","3","2","2","17","[19,16,17,17,17,16,17,17,17,17,17,17,17,17,17,17,17,17,17,17,17,17,17,17,17,17,17,17,17,17,17,17,17,17,17,17,17,17,17,17,17,17,17,17,17,17,17,17,17,17,17,17,17,17,17,17,17,17,17,17,17,17,17,17,17,17,17,17,17,17,17,17,17,17,17,17,17,17,17,17,17,17,17,17,17,17,17,17,17,17,17,17,17,17,17,17,17,17,17,17,17,17,17,17,17,17,17,17,17,17,17,17,17,17,17,17,17,17,17,17,17,17,17,17]","124","960","484.5","false","20","20","black","1","false","1","1","1920","969","d","staircase_color","","","","",""
"","","","","","html-keyboard-response","112","714255","0.0-5.0-1.0-1.0-0.0-2.0-0.0-0.0-2.10","null","","null","<p style='font-size: 60px; color: red'>错误!</p>","","","","","","","","","","","","","","","","","","","","","","","","","","","","","","","","","","","","","","","","","","","","","","","",""
"","","","","","html-keyboard-response","113","715729","0.0-5.0-1.0-1.0-0.0-2.0-0.0-0.0-0.11","null","fixation","null","<p style='font-size: 48px; color: white'>+</p >","","","","","","","","","","","","","","","","","","","","","","","","","","","","","","","","","","","","","","","","","","","","","","","",""
"","","","","","rdk","114","717544","0.0-5.0-1.0-1.0-0.0-2.0-0.0-0.0-1.11","858","color_test","k","","true","[""d"",""k""]","k","3000","true","1","100","0","0","0","3","1","-1","2","300","300","[""hsl(0, 50%, 50%)"",""hsl(225, 50%, 50%)""]","[""hsl(225, 50%, 50%)"",""hsl(0, 50%, 50%)""]","0.5","0.54","0","circle","black","3","2","2","16.92156862745098","[14,17,17,17,17,17,17,17,17,17,17,17,17,17,17,17,17,17,17,17,17,17,17,17,17,17,17,17,17,17,17,17,17,17,17,17,17,17,17,17,17,16,17,17,17,17,17,17,17,17,17]","51","960","484.5","false","20","20","black","1","false","1","1","1920","969","k","staircase_color","","","","",""
"","","","","","html-keyboard-response","115","719007","0.0-5.0-1.0-1.0-0.0-2.0-0.0-0.0-2.11","null","","null","<p style='font-size: 60px; color: green'>正确!</p>","","","","","","","","","","","","","","","","","","","","","","","","","","","","","","","","","","","","","","","","","","","","","","","",""
"","","","","","html-keyboard-response","116","721986","0.0-5.0-1.0-1.0-0.0-2.0-0.0-1.0","null","","null","<p style='font-size: 35px; color: white'>您的正确率为： 75% 。平均反应时为：1029毫秒。</p>","","","","","","","","","","","","","","","","","","","","","","","","","","","","","","","","","","","","","","","","","","","","","","","",""
"","","","","","html-keyboard-response","117","723470","0.0-5.0-1.0-1.0-0.0-3.0-0.0-0.0-0.0","null","fixation","null","<p style='font-size: 48px; color: white'>+</p >","","","","","","","","","","","","","","","","","","","","","","","","","","","","","","","","","","","","","","","","","","","","","","","",""
"","","","","","rdk","118","725560","0.0-5.0-1.0-1.0-0.0-3.0-0.0-0.0-1.0","1125","color_test","k","","false","[""d"",""k""]","d","3000","true","1","100","0","0","0","3","1","-1","2","300","300","[""hsl(0, 50%, 50%)"",""hsl(225, 50%, 50%)""]","[""hsl(0, 50%, 50%)"",""hsl(225, 50%, 50%)""]","0.5","0.52","0","circle","black","3","2","2","16.955223880597014","[15,17,17,17,17,17,17,17,17,17,17,17,17,17,17,17,17,17,17,17,17,17,17,17,17,17,17,17,17,17,17,17,17,17,17,17,17,17,17,17,17,16,17,17,17,17,17,17,17,17,17,17,17,17,17,17,17,17,17,17,17,17,17,17,17,17,17]","67","960","484.5","false","20","20","black","1","false","1","1","1920","969","d","staircase_color","","","","",""
"","","","","","html-keyboard-response","119","727022","0.0-5.0-1.0-1.0-0.0-3.0-0.0-0.0-2.0","null","","null","<p style='font-size: 60px; color: red'>错误!</p>","","","","","","","","","","","","","","","","","","","","","","","","","","","","","","","","","","","","","","","","","","","","","","","",""
"","","","","","html-keyboard-response","120","728488","0.0-5.0-1.0-1.0-0.0-3.0-0.0-0.0-0.1","null","fixation","null","<p style='font-size: 48px; color: white'>+</p >","","","","","","","","","","","","","","","","","","","","","","","","","","","","","","","","","","","","","","","","","","","","","","","",""
"","","","","","rdk","121","730208","0.0-5.0-1.0-1.0-0.0-3.0-0.0-0.0-1.1","746","color_test","k","","true","[""d"",""k""]","k","3000","true","1","100","0","0","0","3","1","-1","2","300","300","[""hsl(0, 50%, 50%)"",""hsl(225, 50%, 50%)""]","[""hsl(225, 50%, 50%)"",""hsl(0, 50%, 50%)""]","0.5","0.52","0","circle","black","3","2","2","16.755555555555556","[6,17,17,17,17,17,17,17,17,17,17,17,17,17,17,17,17,17,17,17,17,17,17,17,17,17,17,17,17,17,17,17,17,17,17,17,17,17,17,17,17,17,17,17,17]","45","960","484.5","false","20","20","black","1","false","1","1","1920","969","k","staircase_color","","","","",""
"","","","","","html-keyboard-response","122","731686","0.0-5.0-1.0-1.0-0.0-3.0-0.0-0.0-2.1","null","","null","<p style='font-size: 60px; color: green'>正确!</p>","","","","","","","","","","","","","","","","","","","","","","","","","","","","","","","","","","","","","","","","","","","","","","","",""
"","","","","","html-keyboard-response","123","733144","0.0-5.0-1.0-1.0-0.0-3.0-0.0-0.0-0.2","null","fixation","null","<p style='font-size: 48px; color: white'>+</p >","","","","","","","","","","","","","","","","","","","","","","","","","","","","","","","","","","","","","","","","","","","","","","","",""
"","","","","","rdk","124","734800","0.0-5.0-1.0-1.0-0.0-3.0-0.0-0.0-1.2","684","color_test","k","","false","[""d"",""k""]","d","3000","true","1","100","0","0","0","3","1","-1","2","300","300","[""hsl(0, 50%, 50%)"",""hsl(225, 50%, 50%)""]","[""hsl(0, 50%, 50%)"",""hsl(225, 50%, 50%)""]","0.5","0.52","0","circle","black","3","2","2","16.51219512195122","[2,16,17,17,17,17,16,17,17,17,17,17,17,17,17,17,17,17,17,17,17,16,17,17,17,17,17,17,17,17,17,17,17,16,17,16,17,17,17,17,17]","41","960","484.5","false","20","20","black","1","false","1","1","1920","969","d","staircase_color","","","","",""
"","","","","","html-keyboard-response","125","736281","0.0-5.0-1.0-1.0-0.0-3.0-0.0-0.0-2.2","null","","null","<p style='font-size: 60px; color: red'>错误!</p>","","","","","","","","","","","","","","","","","","","","","","","","","","","","","","","","","","","","","","","","","","","","","","","",""
"","","","","","html-keyboard-response","126","737762","0.0-5.0-1.0-1.0-0.0-3.0-0.0-0.0-0.3","null","fixation","null","<p style='font-size: 48px; color: white'>+</p >","","","","","","","","","","","","","","","","","","","","","","","","","","","","","","","","","","","","","","","","","","","","","","","",""
"","","","","","rdk","127","739555","0.0-5.0-1.0-1.0-0.0-3.0-0.0-0.0-1.3","828","color_test","k","","true","[""d"",""k""]","k","3000","true","1","100","0","0","0","3","1","-1","2","300","300","[""hsl(0, 50%, 50%)"",""hsl(225, 50%, 50%)""]","[""hsl(225, 50%, 50%)"",""hsl(0, 50%, 50%)""]","0.5","0.52","0","circle","black","3","2","2","16.7","[6,17,17,16,17,17,17,17,17,16,17,17,16,17,17,17,17,17,17,17,16,17,17,17,17,17,17,17,17,17,17,17,17,17,17,17,17,17,17,17,17,17,17,17,17,17,17,17,17,17]","50","960","484.5","false","20","20","black","1","false","1","1","1920","969","k","staircase_color","","","","",""
"","","","","","html-keyboard-response","128","741030","0.0-5.0-1.0-1.0-0.0-3.0-0.0-0.0-2.3","null","","null","<p style='font-size: 60px; color: green'>正确!</p>","","","","","","","","","","","","","","","","","","","","","","","","","","","","","","","","","","","","","","","","","","","","","","","",""
"","","","","","html-keyboard-response","129","742487","0.0-5.0-1.0-1.0-0.0-3.0-0.0-0.0-0.4","null","fixation","null","<p style='font-size: 48px; color: white'>+</p >","","","","","","","","","","","","","","","","","","","","","","","","","","","","","","","","","","","","","","","","","","","","","","","",""
"","","","","","rdk","130","744177","0.0-5.0-1.0-1.0-0.0-3.0-0.0-0.0-1.4","731","color_test","k","","true","[""d"",""k""]","k","3000","true","1","100","0","0","0","3","1","-1","2","300","300","[""hsl(0, 50%, 50%)"",""hsl(225, 50%, 50%)""]","[""hsl(225, 50%, 50%)"",""hsl(0, 50%, 50%)""]","0.5","0.52","0","circle","black","3","2","2","16.704545454545453","[5,16,17,17,17,17,17,17,17,17,17,17,17,17,17,17,17,17,17,17,17,17,17,17,17,17,17,17,17,17,17,17,17,17,17,17,17,17,17,17,17,17,17,17]","44","960","484.5","false","20","20","black","1","false","1","1","1920","969","k","staircase_color","","","","",""
"","","","","","html-keyboard-response","131","745647","0.0-5.0-1.0-1.0-0.0-3.0-0.0-0.0-2.4","null","","null","<p style='font-size: 60px; color: green'>正确!</p>","","","","","","","","","","","","","","","","","","","","","","","","","","","","","","","","","","","","","","","","","","","","","","","",""
"","","","","","html-keyboard-response","132","747125","0.0-5.0-1.0-1.0-0.0-3.0-0.0-0.0-0.5","null","fixation","null","<p style='font-size: 48px; color: white'>+</p >","","","","","","","","","","","","","","","","","","","","","","","","","","","","","","","","","","","","","","","","","","","","","","","",""
"","","","","","rdk","133","749256","0.0-5.0-1.0-1.0-0.0-3.0-0.0-0.0-1.5","1171","color_test","k","","false","[""d"",""k""]","d","3000","true","1","100","0","0","0","3","1","-1","2","300","300","[""hsl(0, 50%, 50%)"",""hsl(225, 50%, 50%)""]","[""hsl(0, 50%, 50%)"",""hsl(225, 50%, 50%)""]","0.5","0.52","0","circle","black","3","2","2","16.92753623188406","[15,17,17,17,17,17,17,17,17,17,17,17,17,17,17,17,17,17,17,17,17,17,17,16,17,17,17,17,17,17,17,17,17,17,16,17,17,17,17,17,17,17,17,17,17,17,17,17,17,17,17,17,17,17,17,17,17,17,17,17,17,17,17,17,17,17,16,17,17]","69","960","484.5","false","20","20","black","1","false","1","1","1920","969","d","staircase_color","","","","",""
"","","","","","html-keyboard-response","134","750727","0.0-5.0-1.0-1.0-0.0-3.0-0.0-0.0-2.5","null","","null","<p style='font-size: 60px; color: red'>错误!</p>","","","","","","","","","","","","","","","","","","","","","","","","","","","","","","","","","","","","","","","","","","","","","","","",""
"","","","","","html-keyboard-response","135","752189","0.0-5.0-1.0-1.0-0.0-3.0-0.0-0.0-0.6","null","fixation","null","<p style='font-size: 48px; color: white'>+</p >","","","","","","","","","","","","","","","","","","","","","","","","","","","","","","","","","","","","","","","","","","","","","","","",""
"","","","","","rdk","136","754506","0.0-5.0-1.0-1.0-0.0-3.0-0.0-0.0-1.6","1347","color_test","d","","true","[""d"",""k""]","d","3000","true","1","100","0","0","0","3","1","-1","2","300","300","[""hsl(0, 50%, 50%)"",""hsl(225, 50%, 50%)""]","[""hsl(0, 50%, 50%)"",""hsl(225, 50%, 50%)""]","0.5","0.52","0","circle","black","3","2","2","16.839506172839506","[9,17,17,17,17,17,16,17,17,17,15,17,17,17,17,17,17,17,17,17,17,17,17,17,17,17,17,17,17,17,17,17,17,17,17,17,17,17,17,17,17,17,17,16,17,17,17,17,17,17,17,17,17,17,17,17,17,17,17,17,17,17,17,17,17,16,17,17,17,17,17,17,17,17,17,17,17,17,17,17,17]","81","960","484.5","false","20","20","black","1","false","1","1","1920","969","d","staircase_color","","","","",""
"","","","","","html-keyboard-response","137","755976","0.0-5.0-1.0-1.0-0.0-3.0-0.0-0.0-2.6","null","","null","<p style='font-size: 60px; color: green'>正确!</p>","","","","","","","","","","","","","","","","","","","","","","","","","","","","","","","","","","","","","","","","","","","","","","","",""
"","","","","","html-keyboard-response","138","757437","0.0-5.0-1.0-1.0-0.0-3.0-0.0-0.0-0.7","null","fixation","null","<p style='font-size: 48px; color: white'>+</p >","","","","","","","","","","","","","","","","","","","","","","","","","","","","","","","","","","","","","","","","","","","","","","","",""
"","","","","","rdk","139","759897","0.0-5.0-1.0-1.0-0.0-3.0-0.0-0.0-1.7","1503","color_test","k","","true","[""d"",""k""]","k","3000","true","1","100","0","0","0","3","1","-1","2","300","300","[""hsl(0, 50%, 50%)"",""hsl(225, 50%, 50%)""]","[""hsl(225, 50%, 50%)"",""hsl(0, 50%, 50%)""]","0.5","0.52","0","circle","black","3","2","2","16.822222222222223","[8,17,17,17,16,17,16,17,17,17,17,17,17,17,17,17,17,17,17,17,17,17,17,17,17,16,17,17,17,17,17,17,17,17,17,17,17,17,17,17,17,17,17,17,17,17,17,17,17,17,17,16,17,17,17,17,17,17,17,16,17,17,17,17,17,17,17,17,17,15,17,17,17,17,17,17,17,17,17,17,17,17,17,17,17,17,17,17,17,17]","90","960","484.5","false","20","20","black","1","false","1","1","1920","969","k","staircase_color","","","","",""
"","","","","","html-keyboard-response","140","761360","0.0-5.0-1.0-1.0-0.0-3.0-0.0-0.0-2.7","null","","null","<p style='font-size: 60px; color: green'>正确!</p>","","","","","","","","","","","","","","","","","","","","","","","","","","","","","","","","","","","","","","","","","","","","","","","",""
"","","","","","html-keyboard-response","141","762844","0.0-5.0-1.0-1.0-0.0-3.0-0.0-0.0-0.8","null","fixation","null","<p style='font-size: 48px; color: white'>+</p >","","","","","","","","","","","","","","","","","","","","","","","","","","","","","","","","","","","","","","","","","","","","","","","",""
"","","","","","rdk","142","765633","0.0-5.0-1.0-1.0-0.0-3.0-0.0-0.0-1.8","1828","color_test","d","","false","[""d"",""k""]","k","3000","true","1","100","0","0","0","3","1","-1","2","300","300","[""hsl(0, 50%, 50%)"",""hsl(225, 50%, 50%)""]","[""hsl(225, 50%, 50%)"",""hsl(0, 50%, 50%)""]","0.5","0.52","0","circle","black","3","2","2","16.908256880733944","[13,17,17,17,17,17,17,17,17,17,17,17,17,17,17,17,17,17,17,17,17,17,17,17,17,17,17,17,17,17,17,17,17,17,17,17,17,17,17,17,17,17,17,17,17,16,17,17,17,17,17,17,17,17,17,17,17,17,17,17,17,17,17,17,17,17,17,17,17,17,17,17,17,17,17,17,17,17,17,17,17,15,17,17,17,17,17,17,17,17,16,17,17,17,17,17,17,17,16,17,17,17,17,17,16,17,17,17,17]","109","960","484.5","false","20","20","black","1","false","1","1","1920","969","k","staircase_color","","","","",""
"","","","","","html-keyboard-response","143","767109","0.0-5.0-1.0-1.0-0.0-3.0-0.0-0.0-2.8","null","","null","<p style='font-size: 60px; color: red'>错误!</p>","","","","","","","","","","","","","","","","","","","","","","","","","","","","","","","","","","","","","","","","","","","","","","","",""
"","","","","","html-keyboard-response","144","768589","0.0-5.0-1.0-1.0-0.0-3.0-0.0-0.0-0.9","null","fixation","null","<p style='font-size: 48px; color: white'>+</p >","","","","","","","","","","","","","","","","","","","","","","","","","","","","","","","","","","","","","","","","","","","","","","","",""
"","","","","","rdk","145","770808","0.0-5.0-1.0-1.0-0.0-3.0-0.0-0.0-1.9","1263","color_test","k","","false","[""d"",""k""]","d","3000","true","1","100","0","0","0","3","1","-1","2","300","300","[""hsl(0, 50%, 50%)"",""hsl(225, 50%, 50%)""]","[""hsl(0, 50%, 50%)"",""hsl(225, 50%, 50%)""]","0.5","0.52","0","circle","black","3","2","2","16.710526315789473","[5,16,17,17,16,17,17,17,17,17,17,17,17,17,17,17,17,17,17,17,17,17,16,16,17,17,17,16,17,17,17,17,16,17,17,17,17,17,16,16,18,16,17,17,17,17,17,17,16,17,17,17,17,17,17,17,17,17,17,17,17,17,17,17,17,16,17,17,17,17,17,17,17,17,17,17]","76","960","484.5","false","20","20","black","1","false","1","1","1920","969","d","staircase_color","","","","",""
"","","","","","html-keyboard-response","146","772266","0.0-5.0-1.0-1.0-0.0-3.0-0.0-0.0-2.9","null","","null","<p style='font-size: 60px; color: red'>错误!</p>","","","","","","","","","","","","","","","","","","","","","","","","","","","","","","","","","","","","","","","","","","","","","","","",""
"","","","","","html-keyboard-response","147","773740","0.0-5.0-1.0-1.0-0.0-3.0-0.0-0.0-0.10","null","fixation","null","<p style='font-size: 48px; color: white'>+</p >","","","","","","","","","","","","","","","","","","","","","","","","","","","","","","","","","","","","","","","","","","","","","","","",""
"","","","","","rdk","148","776200","0.0-5.0-1.0-1.0-0.0-3.0-0.0-0.0-1.10","1495","color_test","k","","false","[""d"",""k""]","d","3000","true","1","100","0","0","0","3","1","-1","2","300","300","[""hsl(0, 50%, 50%)"",""hsl(225, 50%, 50%)""]","[""hsl(0, 50%, 50%)"",""hsl(225, 50%, 50%)""]","0.5","0.52","0","circle","black","3","2","2","16.910112359550563","[12,17,17,17,17,17,17,17,17,17,17,17,17,17,17,17,17,17,17,17,17,17,17,17,17,17,17,17,15,17,17,17,17,17,17,17,17,17,17,17,17,17,17,17,17,17,17,17,17,17,17,17,17,17,17,17,17,17,17,17,17,17,17,17,17,16,17,17,17,17,17,17,17,17,17,17,17,17,17,17,17,17,17,17,17,17,17,17,17]","89","960","484.5","false","20","20","black","1","false","1","1","1920","969","d","staircase_color","","","","",""
"","","","","","html-keyboard-response","149","777672","0.0-5.0-1.0-1.0-0.0-3.0-0.0-0.0-2.10","null","","null","<p style='font-size: 60px; color: red'>错误!</p>","","","","","","","","","","","","","","","","","","","","","","","","","","","","","","","","","","","","","","","","","","","","","","","",""
"","","","","","html-keyboard-response","150","779135","0.0-5.0-1.0-1.0-0.0-3.0-0.0-0.0-0.11","null","fixation","null","<p style='font-size: 48px; color: white'>+</p >","","","","","","","","","","","","","","","","","","","","","","","","","","","","","","","","","","","","","","","","","","","","","","","",""
"","","","","","rdk","151","781009","0.0-5.0-1.0-1.0-0.0-3.0-0.0-0.0-1.11","915","color_test","k","","true","[""d"",""k""]","k","3000","true","1","100","0","0","0","3","1","-1","2","300","300","[""hsl(0, 50%, 50%)"",""hsl(225, 50%, 50%)""]","[""hsl(225, 50%, 50%)"",""hsl(0, 50%, 50%)""]","0.5","0.52","0","circle","black","3","2","2","16.727272727272727","[7,15,17,17,17,17,17,17,17,17,17,17,17,17,17,17,17,17,17,17,17,17,17,17,17,17,17,17,17,17,16,17,17,17,17,17,17,17,17,16,17,17,17,17,17,17,17,17,16,17,17,17,17,17,17]","55","960","484.5","false","20","20","black","1","false","1","1","1920","969","k","staircase_color","","","","",""
"","","","","","html-keyboard-response","152","782487","0.0-5.0-1.0-1.0-0.0-3.0-0.0-0.0-2.11","null","","null","<p style='font-size: 60px; color: green'>正确!</p>","","","","","","","","","","","","","","","","","","","","","","","","","","","","","","","","","","","","","","","","","","","","","","","",""
"","","","","","html-keyboard-response","153","785470","0.0-5.0-1.0-1.0-0.0-3.0-0.0-1.0","null","","null","<p style='font-size: 35px; color: white'>您的正确率为： 50% 。平均反应时为：1136毫秒。</p>","","","","","","","","","","","","","","","","","","","","","","","","","","","","","","","","","","","","","","","","","","","","","","","",""
"","","","","","html-keyboard-response","154","786942","0.0-5.0-1.0-1.0-0.0-4.0-0.0-0.0-0.0","null","fixation","null","<p style='font-size: 48px; color: white'>+</p >","","","","","","","","","","","","","","","","","","","","","","","","","","","","","","","","","","","","","","","","","","","","","","","",""
"","","","","","rdk","155","789739","0.0-5.0-1.0-1.0-0.0-4.0-0.0-0.0-1.0","1827","color_test","d","","true","[""d"",""k""]","d","3000","true","1","100","0","0","0","3","1","-1","2","300","300","[""hsl(0, 50%, 50%)"",""hsl(225, 50%, 50%)""]","[""hsl(0, 50%, 50%)"",""hsl(225, 50%, 50%)""]","0.5","0.6","0","circle","black","3","2","2","16.854545454545455","[5,16,17,17,17,17,17,17,17,17,17,17,17,17,17,17,17,17,17,17,17,17,17,17,16,17,17,17,17,17,17,17,17,17,17,17,17,17,17,17,17,17,17,17,17,17,17,17,17,17,17,16,17,17,17,17,17,17,17,17,17,17,17,17,17,17,17,17,17,17,17,17,17,17,17,17,17,17,17,17,17,17,17,17,17,17,17,16,17,17,17,17,17,17,17,17,17,17,16,17,17,17,17,17,17,17,17,17,17,18]","110","960","484.5","false","20","20","black","1","false","1","1","1920","969","d","staircase_color","","","","",""
"","","","","","html-keyboard-response","156","791218","0.0-5.0-1.0-1.0-0.0-4.0-0.0-0.0-2.0","null","","null","<p style='font-size: 60px; color: green'>正确!</p>","","","","","","","","","","","","","","","","","","","","","","","","","","","","","","","","","","","","","","","","","","","","","","","",""
"","","","","","html-keyboard-response","157","792689","0.0-5.0-1.0-1.0-0.0-4.0-0.0-0.0-0.1","null","fixation","null","<p style='font-size: 48px; color: white'>+</p >","","","","","","","","","","","","","","","","","","","","","","","","","","","","","","","","","","","","","","","","","","","","","","","",""
"","","","","","rdk","158","794355","0.0-5.0-1.0-1.0-0.0-4.0-0.0-0.0-1.1","698","color_test","k","","true","[""d"",""k""]","k","3000","true","1","100","0","0","0","3","1","-1","2","300","300","[""hsl(0, 50%, 50%)"",""hsl(225, 50%, 50%)""]","[""hsl(225, 50%, 50%)"",""hsl(0, 50%, 50%)""]","0.5","0.6","0","circle","black","3","2","2","16.785714285714285","[11,17,17,17,16,16,17,17,17,17,17,17,17,17,17,17,17,17,17,17,17,17,17,17,17,17,17,17,17,17,17,17,24,9,17,17,17,17,17,17,17,17]","42","960","484.5","false","20","20","black","1","false","1","1","1920","969","k","staircase_color","","","","",""
"","","","","","html-keyboard-response","159","795828","0.0-5.0-1.0-1.0-0.0-4.0-0.0-0.0-2.1","null","","null","<p style='font-size: 60px; color: green'>正确!</p>","","","","","","","","","","","","","","","","","","","","","","","","","","","","","","","","","","","","","","","","","","","","","","","",""
"","","","","","html-keyboard-response","160","797295","0.0-5.0-1.0-1.0-0.0-4.0-0.0-0.0-0.2","null","fixation","null","<p style='font-size: 48px; color: white'>+</p >","","","","","","","","","","","","","","","","","","","","","","","","","","","","","","","","","","","","","","","","","","","","","","","",""
"","","","","","rdk","161","798960","0.0-5.0-1.0-1.0-0.0-4.0-0.0-0.0-1.2","694","color_test","k","","true","[""d"",""k""]","k","3000","true","1","100","0","0","0","3","1","-1","2","300","300","[""hsl(0, 50%, 50%)"",""hsl(225, 50%, 50%)""]","[""hsl(225, 50%, 50%)"",""hsl(0, 50%, 50%)""]","0.5","0.6","0","circle","black","3","2","2","16.571428571428573","[2,16,17,17,17,17,17,17,17,17,17,17,17,17,17,17,16,17,17,17,17,17,17,17,17,17,17,17,17,17,17,16,17,17,17,17,17,17,17,17,17,17]","42","960","484.5","false","20","20","black","1","false","1","1","1920","969","k","staircase_color","","","","",""
"","","","","","html-keyboard-response","162","800436","0.0-5.0-1.0-1.0-0.0-4.0-0.0-0.0-2.2","null","","null","<p style='font-size: 60px; color: green'>正确!</p>","","","","","","","","","","","","","","","","","","","","","","","","","","","","","","","","","","","","","","","","","","","","","","","",""
"","","","","","html-keyboard-response","163","801905","0.0-5.0-1.0-1.0-0.0-4.0-0.0-0.0-0.3","null","fixation","null","<p style='font-size: 48px; color: white'>+</p >","","","","","","","","","","","","","","","","","","","","","","","","","","","","","","","","","","","","","","","","","","","","","","","",""
"","","","","","rdk","164","803769","0.0-5.0-1.0-1.0-0.0-4.0-0.0-0.0-1.3","895","color_test","d","","true","[""d"",""k""]","d","3000","true","1","100","0","0","0","3","1","-1","2","300","300","[""hsl(0, 50%, 50%)"",""hsl(225, 50%, 50%)""]","[""hsl(0, 50%, 50%)"",""hsl(225, 50%, 50%)""]","0.5","0.6","0","circle","black","3","2","2","16.830188679245282","[9,17,17,17,17,17,17,17,17,16,17,17,17,17,17,17,17,17,17,17,17,17,17,17,17,17,17,17,17,17,17,17,17,17,17,17,17,17,17,17,17,17,17,17,17,17,17,17,17,17,17,17,17]","53","960","484.5","false","20","20","black","1","false","1","1","1920","969","d","staircase_color","","","","",""
"","","","","","html-keyboard-response","165","805249","0.0-5.0-1.0-1.0-0.0-4.0-0.0-0.0-2.3","null","","null","<p style='font-size: 60px; color: green'>正确!</p>","","","","","","","","","","","","","","","","","","","","","","","","","","","","","","","","","","","","","","","","","","","","","","","",""
"","","","","","html-keyboard-response","166","806717","0.0-5.0-1.0-1.0-0.0-4.0-0.0-0.0-0.4","null","fixation","null","<p style='font-size: 48px; color: white'>+</p >","","","","","","","","","","","","","","","","","","","","","","","","","","","","","","","","","","","","","","","","","","","","","","","",""
"","","","","","rdk","167","808665","0.0-5.0-1.0-1.0-0.0-4.0-0.0-0.0-1.4","977","color_test","d","","true","[""d"",""k""]","d","3000","true","1","100","0","0","0","3","1","-1","2","300","300","[""hsl(0, 50%, 50%)"",""hsl(225, 50%, 50%)""]","[""hsl(0, 50%, 50%)"",""hsl(225, 50%, 50%)""]","0.5","0.6","0","circle","black","3","2","2","16.896551724137932","[12,17,17,17,16,17,17,17,17,17,17,17,17,17,17,17,17,17,17,17,17,17,17,17,17,17,17,17,17,17,17,17,17,17,17,17,17,17,17,17,17,17,17,17,17,17,17,17,17,17,17,17,17,17,17,17,17,17]","58","960","484.5","false","20","20","black","1","false","1","1","1920","969","d","staircase_color","","","","",""
"","","","","","html-keyboard-response","168","810138","0.0-5.0-1.0-1.0-0.0-4.0-0.0-0.0-2.4","null","","null","<p style='font-size: 60px; color: green'>正确!</p>","","","","","","","","","","","","","","","","","","","","","","","","","","","","","","","","","","","","","","","","","","","","","","","",""
"","","","","","html-keyboard-response","169","811620","0.0-5.0-1.0-1.0-0.0-4.0-0.0-0.0-0.5","null","fixation","null","<p style='font-size: 48px; color: white'>+</p >","","","","","","","","","","","","","","","","","","","","","","","","","","","","","","","","","","","","","","","","","","","","","","","",""
"","","","","","rdk","170","813657","0.0-5.0-1.0-1.0-0.0-4.0-0.0-0.0-1.5","1071","color_test","k","","true","[""d"",""k""]","k","3000","true","1","100","0","0","0","3","1","-1","2","300","300","[""hsl(0, 50%, 50%)"",""hsl(225, 50%, 50%)""]","[""hsl(225, 50%, 50%)"",""hsl(0, 50%, 50%)""]","0.5","0.6","0","circle","black","3","2","2","16.953125","[14,17,17,17,17,17,17,17,17,17,17,17,17,17,17,17,17,17,17,17,17,17,17,17,17,17,17,17,17,17,17,17,17,17,17,17,17,17,17,17,17,17,17,17,17,17,17,17,17,17,17,17,17,17,17,17,17,17,17,17,17,17,17,17]","64","960","484.5","false","20","20","black","1","false","1","1","1920","969","k","staircase_color","","","","",""
"","","","","","html-keyboard-response","171","815128","0.0-5.0-1.0-1.0-0.0-4.0-0.0-0.0-2.5","null","","null","<p style='font-size: 60px; color: green'>正确!</p>","","","","","","","","","","","","","","","","","","","","","","","","","","","","","","","","","","","","","","","","","","","","","","","",""
"","","","","","html-keyboard-response","172","816602","0.0-5.0-1.0-1.0-0.0-4.0-0.0-0.0-0.6","null","fixation","null","<p style='font-size: 48px; color: white'>+</p >","","","","","","","","","","","","","","","","","","","","","","","","","","","","","","","","","","","","","","","","","","","","","","","",""
"","","","","","rdk","173","818745","0.0-5.0-1.0-1.0-0.0-4.0-0.0-0.0-1.6","1179","color_test","d","","true","[""d"",""k""]","d","3000","true","1","100","0","0","0","3","1","-1","2","300","300","[""hsl(0, 50%, 50%)"",""hsl(225, 50%, 50%)""]","[""hsl(0, 50%, 50%)"",""hsl(225, 50%, 50%)""]","0.5","0.6","0","circle","black","3","2","2","16.732394366197184","[3,15,17,17,17,17,17,17,17,17,17,17,17,17,17,17,17,17,17,17,17,17,17,17,17,17,17,17,17,17,17,17,17,17,17,17,17,17,17,17,17,17,17,17,17,17,17,17,17,16,17,17,17,17,17,17,17,17,17,15,17,17,17,17,17,17,17,17,17,17,17]","71","960","484.5","false","20","20","black","1","false","1","1","1920","969","d","staircase_color","","","","",""
"","","","","","html-keyboard-response","174","820218","0.0-5.0-1.0-1.0-0.0-4.0-0.0-0.0-2.6","null","","null","<p style='font-size: 60px; color: green'>正确!</p>","","","","","","","","","","","","","","","","","","","","","","","","","","","","","","","","","","","","","","","","","","","","","","","",""
"","","","","","html-keyboard-response","175","821695","0.0-5.0-1.0-1.0-0.0-4.0-0.0-0.0-0.7","null","fixation","null","<p style='font-size: 48px; color: white'>+</p >","","","","","","","","","","","","","","","","","","","","","","","","","","","","","","","","","","","","","","","","","","","","","","","",""
"","","","","","rdk","176","823955","0.0-5.0-1.0-1.0-0.0-4.0-0.0-0.0-1.7","1299","color_test","k","","true","[""d"",""k""]","k","3000","true","1","100","0","0","0","3","1","-1","2","300","300","[""hsl(0, 50%, 50%)"",""hsl(225, 50%, 50%)""]","[""hsl(225, 50%, 50%)"",""hsl(0, 50%, 50%)""]","0.5","0.6","0","circle","black","3","2","2","16.91025641025641","[11,17,17,17,17,17,17,17,17,17,17,17,17,17,17,17,17,16,17,17,17,17,17,17,17,17,17,17,17,17,17,17,17,17,17,17,17,17,17,17,17,17,17,17,17,17,17,17,17,17,17,17,17,17,17,17,17,17,17,17,17,17,17,17,17,17,17,17,17,17,17,17,17,17,17,17,17,17]","78","960","484.5","false","20","20","black","1","false","1","1","1920","969","k","staircase_color","","","","",""
"","","","","","html-keyboard-response","177","825430","0.0-5.0-1.0-1.0-0.0-4.0-0.0-0.0-2.7","null","","null","<p style='font-size: 60px; color: green'>正确!</p>","","","","","","","","","","","","","","","","","","","","","","","","","","","","","","","","","","","","","","","","","","","","","","","",""
"","","","","","html-keyboard-response","178","826903","0.0-5.0-1.0-1.0-0.0-4.0-0.0-0.0-0.8","null","fixation","null","<p style='font-size: 48px; color: white'>+</p >","","","","","","","","","","","","","","","","","","","","","","","","","","","","","","","","","","","","","","","","","","","","","","","",""
"","","","","","rdk","179","828697","0.0-5.0-1.0-1.0-0.0-4.0-0.0-0.0-1.8","837","color_test","k","","true","[""d"",""k""]","k","3000","true","1","100","0","0","0","3","1","-1","2","300","300","[""hsl(0, 50%, 50%)"",""hsl(225, 50%, 50%)""]","[""hsl(225, 50%, 50%)"",""hsl(0, 50%, 50%)""]","0.5","0.6","0","circle","black","3","2","2","16.82","[8,17,17,17,17,17,17,17,17,17,17,17,17,17,17,17,17,17,17,17,17,17,17,17,17,17,17,17,17,17,17,17,17,17,17,17,17,17,17,17,17,17,17,17,17,17,17,17,17,17]","50","960","484.5","false","20","20","black","1","false","1","1","1920","969","k","staircase_color","","","","",""
"","","","","","html-keyboard-response","180","830172","0.0-5.0-1.0-1.0-0.0-4.0-0.0-0.0-2.8","null","","null","<p style='font-size: 60px; color: green'>正确!</p>","","","","","","","","","","","","","","","","","","","","","","","","","","","","","","","","","","","","","","","","","","","","","","","",""
"","","","","","html-keyboard-response","181","831656","0.0-5.0-1.0-1.0-0.0-4.0-0.0-0.0-0.9","null","fixation","null","<p style='font-size: 48px; color: white'>+</p >","","","","","","","","","","","","","","","","","","","","","","","","","","","","","","","","","","","","","","","","","","","","","","","",""
"","","","","","rdk","182","833385","0.0-5.0-1.0-1.0-0.0-4.0-0.0-0.0-1.9","761","color_test","d","","true","[""d"",""k""]","d","3000","true","1","100","0","0","0","3","1","-1","2","300","300","[""hsl(0, 50%, 50%)"",""hsl(225, 50%, 50%)""]","[""hsl(0, 50%, 50%)"",""hsl(225, 50%, 50%)""]","0.5","0.6","0","circle","black","3","2","2","16.755555555555556","[9,17,17,17,17,16,17,16,17,17,17,17,17,17,17,17,17,17,17,17,17,17,17,17,16,17,17,17,17,17,17,17,17,17,17,17,17,17,17,17,17,17,17,17,17]","45","960","484.5","false","20","20","black","1","false","1","1","1920","969","d","staircase_color","","","","",""
"","","","","","html-keyboard-response","183","834842","0.0-5.0-1.0-1.0-0.0-4.0-0.0-0.0-2.9","null","","null","<p style='font-size: 60px; color: green'>正确!</p>","","","","","","","","","","","","","","","","","","","","","","","","","","","","","","","","","","","","","","","","","","","","","","","",""
"","","","","","html-keyboard-response","184","836312","0.0-5.0-1.0-1.0-0.0-4.0-0.0-0.0-0.10","null","fixation","null","<p style='font-size: 48px; color: white'>+</p >","","","","","","","","","","","","","","","","","","","","","","","","","","","","","","","","","","","","","","","","","","","","","","","",""
"","","","","","rdk","185","837993","0.0-5.0-1.0-1.0-0.0-4.0-0.0-0.0-1.10","717","color_test","k","","true","[""d"",""k""]","k","3000","true","1","100","0","0","0","3","1","-1","2","300","300","[""hsl(0, 50%, 50%)"",""hsl(225, 50%, 50%)""]","[""hsl(225, 50%, 50%)"",""hsl(0, 50%, 50%)""]","0.5","0.6","0","circle","black","3","2","2","16.767441860465116","[9,17,17,17,17,17,16,17,17,17,17,17,17,17,17,17,17,16,17,17,17,17,17,17,17,17,17,17,17,17,17,17,17,17,17,17,17,17,17,17,17,17,17]","43","960","484.5","false","20","20","black","1","false","1","1","1920","969","k","staircase_color","","","","",""
"","","","","","html-keyboard-response","186","839459","0.0-5.0-1.0-1.0-0.0-4.0-0.0-0.0-2.10","null","","null","<p style='font-size: 60px; color: green'>正确!</p>","","","","","","","","","","","","","","","","","","","","","","","","","","","","","","","","","","","","","","","","","","","","","","","",""
"","","","","","html-keyboard-response","187","840936","0.0-5.0-1.0-1.0-0.0-4.0-0.0-0.0-0.11","null","fixation","null","<p style='font-size: 48px; color: white'>+</p >","","","","","","","","","","","","","","","","","","","","","","","","","","","","","","","","","","","","","","","","","","","","","","","",""
"","","","","","rdk","188","842657","0.0-5.0-1.0-1.0-0.0-4.0-0.0-0.0-1.11","764","color_test","d","","true","[""d"",""k""]","d","3000","true","1","100","0","0","0","3","1","-1","2","300","300","[""hsl(0, 50%, 50%)"",""hsl(225, 50%, 50%)""]","[""hsl(0, 50%, 50%)"",""hsl(225, 50%, 50%)""]","0.5","0.6","0","circle","black","3","2","2","16.782608695652176","[8,17,17,17,17,17,17,17,17,17,17,17,17,17,17,17,17,17,17,17,17,17,17,16,17,17,17,17,17,17,17,17,17,17,17,17,17,17,17,17,17,17,17,17,17,17]","46","960","484.5","false","20","20","black","1","false","1","1","1920","969","d","staircase_color","","","","",""
"","","","","","html-keyboard-response","189","844128","0.0-5.0-1.0-1.0-0.0-4.0-0.0-0.0-2.11","null","","null","<p style='font-size: 60px; color: green'>正确!</p>","","","","","","","","","","","","","","","","","","","","","","","","","","","","","","","","","","","","","","","","","","","","","","","",""
"","","","","","html-keyboard-response","190","847105","0.0-5.0-1.0-1.0-0.0-4.0-0.0-1.0","null","","null","<p style='font-size: 35px; color: white'>您的正确率为： 100% 。平均反应时为：977毫秒。</p>","","","","","","","","","","","","","","","","","","","","","","","","","","","","","","","","","","","","","","","","","","","","","","","",""
"","","","","","html-keyboard-response","191","848573","0.0-5.0-1.0-1.0-0.0-5.0-0.0-0.0-0.0","null","fixation","null","<p style='font-size: 48px; color: white'>+</p >","","","","","","","","","","","","","","","","","","","","","","","","","","","","","","","","","","","","","","","","","","","","","","","",""
"","","","","","rdk","192","850457","0.0-5.0-1.0-1.0-0.0-5.0-0.0-0.0-1.0","913","color_test","d","","true","[""d"",""k""]","d","3000","true","1","100","0","0","0","3","1","-1","2","300","300","[""hsl(0, 50%, 50%)"",""hsl(225, 50%, 50%)""]","[""hsl(0, 50%, 50%)"",""hsl(225, 50%, 50%)""]","0.5","0.56","0","circle","black","3","2","2","16.836363636363636","[7,18,17,17,17,17,17,17,17,17,17,17,17,17,17,17,17,17,17,17,17,17,17,17,17,17,17,17,17,17,17,17,17,17,17,17,17,17,17,17,17,17,17,17,17,17,17,17,17,17,17,17,17,17,17]","55","960","484.5","false","20","20","black","1","false","1","1","1920","969","d","staircase_color","","","","",""
"","","","","","html-keyboard-response","193","851935","0.0-5.0-1.0-1.0-0.0-5.0-0.0-0.0-2.0","null","","null","<p style='font-size: 60px; color: green'>正确!</p>","","","","","","","","","","","","","","","","","","","","","","","","","","","","","","","","","","","","","","","","","","","","","","","",""
"","","","","","html-keyboard-response","194","853409","0.0-5.0-1.0-1.0-0.0-5.0-0.0-0.0-0.1","null","fixation","null","<p style='font-size: 48px; color: white'>+</p >","","","","","","","","","","","","","","","","","","","","","","","","","","","","","","","","","","","","","","","","","","","","","","","",""
"","","","","","rdk","195","855081","0.0-5.0-1.0-1.0-0.0-5.0-0.0-0.0-1.1","709","color_test","k","","true","[""d"",""k""]","k","3000","true","1","100","0","0","0","3","1","-1","2","300","300","[""hsl(0, 50%, 50%)"",""hsl(225, 50%, 50%)""]","[""hsl(225, 50%, 50%)"",""hsl(0, 50%, 50%)""]","0.5","0.56","0","circle","black","3","2","2","16.88095238095238","[13,17,17,17,17,17,17,17,17,17,17,17,17,17,17,17,17,17,17,17,17,17,17,17,16,17,17,17,17,17,17,17,17,17,17,17,17,17,17,17,17,17]","42","960","484.5","false","20","20","black","1","false","1","1","1920","969","k","staircase_color","","","","",""
"","","","","","html-keyboard-response","196","856555","0.0-5.0-1.0-1.0-0.0-5.0-0.0-0.0-2.1","null","","null","<p style='font-size: 60px; color: green'>正确!</p>","","","","","","","","","","","","","","","","","","","","","","","","","","","","","","","","","","","","","","","","","","","","","","","",""
"","","","","","html-keyboard-response","197","858018","0.0-5.0-1.0-1.0-0.0-5.0-0.0-0.0-0.2","null","fixation","null","<p style='font-size: 48px; color: white'>+</p >","","","","","","","","","","","","","","","","","","","","","","","","","","","","","","","","","","","","","","","","","","","","","","","",""
"","","","","","rdk","198","859920","0.0-5.0-1.0-1.0-0.0-5.0-0.0-0.0-1.2","940","color_test","d","","true","[""d"",""k""]","d","3000","true","1","100","0","0","0","3","1","-1","2","300","300","[""hsl(0, 50%, 50%)"",""hsl(225, 50%, 50%)""]","[""hsl(0, 50%, 50%)"",""hsl(225, 50%, 50%)""]","0.5","0.56","0","circle","black","3","2","2","16.666666666666668","[3,17,17,16,17,16,17,17,17,17,17,17,17,17,17,17,17,17,17,17,17,17,17,17,17,17,17,17,17,18,15,17,17,17,17,17,17,17,17,17,17,17,17,17,17,17,17,17,17,17,17,17,17,17,17,15,17]","57","960","484.5","false","20","20","black","1","false","1","1","1920","969","d","staircase_color","","","","",""
"","","","","","html-keyboard-response","199","861395","0.0-5.0-1.0-1.0-0.0-5.0-0.0-0.0-2.2","null","","null","<p style='font-size: 60px; color: green'>正确!</p>","","","","","","","","","","","","","","","","","","","","","","","","","","","","","","","","","","","","","","","","","","","","","","","",""
"","","","","","html-keyboard-response","200","862864","0.0-5.0-1.0-1.0-0.0-5.0-0.0-0.0-0.3","null","fixation","null","<p style='font-size: 48px; color: white'>+</p >","","","","","","","","","","","","","","","","","","","","","","","","","","","","","","","","","","","","","","","","","","","","","","","",""
"","","","","","rdk","201","864681","0.0-5.0-1.0-1.0-0.0-5.0-0.0-0.0-1.3","857","color_test","k","","true","[""d"",""k""]","k","3000","true","1","100","0","0","0","3","1","-1","2","300","300","[""hsl(0, 50%, 50%)"",""hsl(225, 50%, 50%)""]","[""hsl(225, 50%, 50%)"",""hsl(0, 50%, 50%)""]","0.5","0.56","0","circle","black","3","2","2","16.823529411764707","[9,17,17,17,17,16,17,17,17,17,17,17,17,17,17,17,17,17,17,17,17,17,17,17,17,17,17,17,17,17,17,17,17,17,17,17,17,17,17,17,17,17,17,17,17,17,17,17,17,17,17]","51","960","484.5","false","20","20","black","1","false","1","1","1920","969","k","staircase_color","","","","",""
"","","","","","html-keyboard-response","202","866143","0.0-5.0-1.0-1.0-0.0-5.0-0.0-0.0-2.3","null","","null","<p style='font-size: 60px; color: green'>正确!</p>","","","","","","","","","","","","","","","","","","","","","","","","","","","","","","","","","","","","","","","","","","","","","","","",""
"","","","","","html-keyboard-response","203","867611","0.0-5.0-1.0-1.0-0.0-5.0-0.0-0.0-0.4","null","fixation","null","<p style='font-size: 48px; color: white'>+</p >","","","","","","","","","","","","","","","","","","","","","","","","","","","","","","","","","","","","","","","","","","","","","","","",""
"","","","","","rdk","204","869729","0.0-5.0-1.0-1.0-0.0-5.0-0.0-0.0-1.4","1156","color_test","k","","true","[""d"",""k""]","k","3000","true","1","100","0","0","0","3","1","-1","2","300","300","[""hsl(0, 50%, 50%)"",""hsl(225, 50%, 50%)""]","[""hsl(225, 50%, 50%)"",""hsl(0, 50%, 50%)""]","0.5","0.56","0","circle","black","3","2","2","16.92753623188406","[12,17,17,17,17,17,17,17,17,17,17,17,17,17,17,17,17,17,17,17,17,17,17,17,17,17,17,17,17,17,17,17,17,17,17,17,17,17,17,17,17,17,17,17,17,17,17,17,17,17,17,17,17,17,17,17,17,17,17,17,17,17,17,17,17,17,17,17,17]","69","960","484.5","false","20","20","black","1","false","1","1","1920","969","k","staircase_color","","","","",""
"","","","","","html-keyboard-response","205","871194","0.0-5.0-1.0-1.0-0.0-5.0-0.0-0.0-2.4","null","","null","<p style='font-size: 60px; color: green'>正确!</p>","","","","","","","","","","","","","","","","","","","","","","","","","","","","","","","","","","","","","","","","","","","","","","","",""
"","","","","","html-keyboard-response","206","872654","0.0-5.0-1.0-1.0-0.0-5.0-0.0-0.0-0.5","null","fixation","null","<p style='font-size: 48px; color: white'>+</p >","","","","","","","","","","","","","","","","","","","","","","","","","","","","","","","","","","","","","","","","","","","","","","","",""
"","","","","","rdk","207","874577","0.0-5.0-1.0-1.0-0.0-5.0-0.0-0.0-1.5","955","color_test","d","","true","[""d"",""k""]","d","3000","true","1","100","0","0","0","3","1","-1","2","300","300","[""hsl(0, 50%, 50%)"",""hsl(225, 50%, 50%)""]","[""hsl(0, 50%, 50%)"",""hsl(225, 50%, 50%)""]","0.5","0.56","0","circle","black","3","2","2","16.894736842105264","[13,16,17,17,17,17,17,17,17,17,17,17,17,17,17,17,17,17,17,17,17,17,17,17,17,16,17,17,17,17,17,17,17,17,17,17,17,17,17,17,17,17,17,17,17,17,17,17,17,17,17,17,17,17,17,17,17]","57","960","484.5","false","20","20","black","1","false","1","1","1920","969","d","staircase_color","","","","",""
"","","","","","html-keyboard-response","208","876046","0.0-5.0-1.0-1.0-0.0-5.0-0.0-0.0-2.5","null","","null","<p style='font-size: 60px; color: green'>正确!</p>","","","","","","","","","","","","","","","","","","","","","","","","","","","","","","","","","","","","","","","","","","","","","","","",""
"","","","","","html-keyboard-response","209","877522","0.0-5.0-1.0-1.0-0.0-5.0-0.0-0.0-0.6","null","fixation","null","<p style='font-size: 48px; color: white'>+</p >","","","","","","","","","","","","","","","","","","","","","","","","","","","","","","","","","","","","","","","","","","","","","","","",""
"","","","","","rdk","210","880106","0.0-5.0-1.0-1.0-0.0-5.0-0.0-0.0-1.6","1621","color_test","k","","true","[""d"",""k""]","k","3000","true","1","100","0","0","0","3","1","-1","2","300","300","[""hsl(0, 50%, 50%)"",""hsl(225, 50%, 50%)""]","[""hsl(225, 50%, 50%)"",""hsl(0, 50%, 50%)""]","0.5","0.56","0","circle","black","3","2","2","16.927835051546392","[17,17,16,17,17,17,17,17,17,17,17,17,16,17,17,17,17,17,17,17,17,17,17,17,17,17,17,17,17,17,17,17,17,17,17,17,17,17,17,17,17,17,17,17,16,17,17,17,17,17,17,17,16,17,17,17,17,17,17,17,17,17,17,17,17,17,17,17,17,17,16,17,17,17,17,17,17,17,17,16,17,17,17,17,17,17,17,16,17,17,17,17,17,17,17,17,17]","97","960","484.5","false","20","20","black","1","false","1","1","1920","969","k","staircase_color","","","","",""
"","","","","","html-keyboard-response","211","881570","0.0-5.0-1.0-1.0-0.0-5.0-0.0-0.0-2.6","null","","null","<p style='font-size: 60px; color: green'>正确!</p>","","","","","","","","","","","","","","","","","","","","","","","","","","","","","","","","","","","","","","","","","","","","","","","",""
"","","","","","html-keyboard-response","212","883037","0.0-5.0-1.0-1.0-0.0-5.0-0.0-0.0-0.7","null","fixation","null","<p style='font-size: 48px; color: white'>+</p >","","","","","","","","","","","","","","","","","","","","","","","","","","","","","","","","","","","","","","","","","","","","","","","",""
"","","","","","rdk","213","885009","0.0-5.0-1.0-1.0-0.0-5.0-0.0-0.0-1.7","1002","color_test","d","","true","[""d"",""k""]","d","3000","true","1","100","0","0","0","3","1","-1","2","300","300","[""hsl(0, 50%, 50%)"",""hsl(225, 50%, 50%)""]","[""hsl(0, 50%, 50%)"",""hsl(225, 50%, 50%)""]","0.5","0.56","0","circle","black","3","2","2","16.9","[11,17,17,17,17,17,17,17,17,17,17,17,17,17,17,17,17,17,17,17,17,17,17,17,17,17,17,17,17,17,17,17,17,17,17,17,17,17,17,17,17,17,17,17,17,17,17,17,17,17,17,17,17,17,17,17,17,17,17,17]","60","960","484.5","false","20","20","black","1","false","1","1","1920","969","d","staircase_color","","","","",""
"","","","","","html-keyboard-response","214","886472","0.0-5.0-1.0-1.0-0.0-5.0-0.0-0.0-2.7","null","","null","<p style='font-size: 60px; color: green'>正确!</p>","","","","","","","","","","","","","","","","","","","","","","","","","","","","","","","","","","","","","","","","","","","","","","","",""
"","","","","","html-keyboard-response","215","887939","0.0-5.0-1.0-1.0-0.0-5.0-0.0-0.0-0.8","null","fixation","null","<p style='font-size: 48px; color: white'>+</p >","","","","","","","","","","","","","","","","","","","","","","","","","","","","","","","","","","","","","","","","","","","","","","","",""
"","","","","","rdk","216","889984","0.0-5.0-1.0-1.0-0.0-5.0-0.0-0.0-1.8","1077","color_test","d","","true","[""d"",""k""]","d","3000","true","1","100","0","0","0","3","1","-1","2","300","300","[""hsl(0, 50%, 50%)"",""hsl(225, 50%, 50%)""]","[""hsl(0, 50%, 50%)"",""hsl(225, 50%, 50%)""]","0.5","0.56","0","circle","black","3","2","2","16.859375","[10,17,17,17,17,17,17,17,17,17,17,17,17,17,17,17,17,17,17,17,17,17,17,17,17,17,17,17,17,17,17,17,17,17,17,17,17,17,17,17,17,17,17,17,17,17,17,17,17,25,8,17,17,17,17,17,17,17,17,17,16,17,17,17]","64","960","484.5","false","20","20","black","1","false","1","1","1920","969","d","staircase_color","","","","",""
"","","","","","html-keyboard-response","217","891463","0.0-5.0-1.0-1.0-0.0-5.0-0.0-0.0-2.8","null","","null","<p style='font-size: 60px; color: green'>正确!</p>","","","","","","","","","","","","","","","","","","","","","","","","","","","","","","","","","","","","","","","","","","","","","","","",""
"","","","","","html-keyboard-response","218","892940","0.0-5.0-1.0-1.0-0.0-5.0-0.0-0.0-0.9","null","fixation","null","<p style='font-size: 48px; color: white'>+</p >","","","","","","","","","","","","","","","","","","","","","","","","","","","","","","","","","","","","","","","","","","","","","","","",""
"","","","","","rdk","219","895144","0.0-5.0-1.0-1.0-0.0-5.0-0.0-0.0-1.9","1240","color_test","k","","true","[""d"",""k""]","k","3000","true","1","100","0","0","0","3","1","-1","2","300","300","[""hsl(0, 50%, 50%)"",""hsl(225, 50%, 50%)""]","[""hsl(225, 50%, 50%)"",""hsl(0, 50%, 50%)""]","0.5","0.56","0","circle","black","3","2","2","16.91891891891892","[14,16,17,17,17,17,17,17,17,17,17,17,17,17,17,17,17,17,17,17,17,17,17,17,17,17,17,17,17,17,17,17,17,17,17,17,17,17,17,17,17,17,17,17,17,17,17,17,17,17,17,17,17,17,17,17,17,17,17,17,17,16,17,17,17,17,17,17,17,17,17,17,17,16]","74","960","484.5","false","20","20","black","1","false","1","1","1920","969","k","staircase_color","","","","",""
"","","","","","html-keyboard-response","220","896614","0.0-5.0-1.0-1.0-0.0-5.0-0.0-0.0-2.9","null","","null","<p style='font-size: 60px; color: green'>正确!</p>","","","","","","","","","","","","","","","","","","","","","","","","","","","","","","","","","","","","","","","","","","","","","","","",""
"","","","","","html-keyboard-response","221","898086","0.0-5.0-1.0-1.0-0.0-5.0-0.0-0.0-0.10","null","fixation","null","<p style='font-size: 48px; color: white'>+</p >","","","","","","","","","","","","","","","","","","","","","","","","","","","","","","","","","","","","","","","","","","","","","","","",""
"","","","","","rdk","222","900689","0.0-5.0-1.0-1.0-0.0-5.0-0.0-0.0-1.10","1639","color_test","d","","false","[""d"",""k""]","k","3000","true","1","100","0","0","0","3","1","-1","2","300","300","[""hsl(0, 50%, 50%)"",""hsl(225, 50%, 50%)""]","[""hsl(225, 50%, 50%)"",""hsl(0, 50%, 50%)""]","0.5","0.56","0","circle","black","3","2","2","16.707070707070706","[2,17,17,16,17,17,17,17,17,17,17,17,17,15,17,17,17,17,17,17,17,17,17,17,17,17,17,17,17,17,17,17,17,17,16,17,17,17,17,17,17,17,17,17,17,17,17,17,17,16,17,17,17,16,17,17,17,17,17,16,16,17,17,17,17,17,17,16,17,17,17,16,17,16,17,17,17,17,17,17,17,17,17,17,17,16,17,16,17,17,17,17,17,17,17,16,17,17,17]","99","960","484.5","false","20","20","black","1","false","1","1","1920","969","k","staircase_color","","","","",""
"","","","","","html-keyboard-response","223","902163","0.0-5.0-1.0-1.0-0.0-5.0-0.0-0.0-2.10","null","","null","<p style='font-size: 60px; color: red'>错误!</p>","","","","","","","","","","","","","","","","","","","","","","","","","","","","","","","","","","","","","","","","","","","","","","","",""
"","","","","","html-keyboard-response","224","903622","0.0-5.0-1.0-1.0-0.0-5.0-0.0-0.0-0.11","null","fixation","null","<p style='font-size: 48px; color: white'>+</p >","","","","","","","","","","","","","","","","","","","","","","","","","","","","","","","","","","","","","","","","","","","","","","","",""
"","","","","","rdk","225","905690","0.0-5.0-1.0-1.0-0.0-5.0-0.0-0.0-1.11","1111","color_test","d","","true","[""d"",""k""]","d","3000","true","1","100","0","0","0","3","1","-1","2","300","300","[""hsl(0, 50%, 50%)"",""hsl(225, 50%, 50%)""]","[""hsl(0, 50%, 50%)"",""hsl(225, 50%, 50%)""]","0.5","0.56","0","circle","black","3","2","2","16.73134328358209","[6,17,17,17,17,17,17,17,17,17,17,17,16,17,16,17,17,17,17,17,17,17,17,17,17,17,17,17,17,17,17,17,17,17,17,17,17,17,17,17,17,15,17,17,16,17,17,17,17,17,16,17,17,16,17,17,17,17,17,17,17,17,17,17,17,17,17]","67","960","484.5","false","20","20","black","1","false","1","1","1920","969","d","staircase_color","","","","",""
"","","","","","html-keyboard-response","226","907162","0.0-5.0-1.0-1.0-0.0-5.0-0.0-0.0-2.11","null","","null","<p style='font-size: 60px; color: green'>正确!</p>","","","","","","","","","","","","","","","","","","","","","","","","","","","","","","","","","","","","","","","","","","","","","","","",""
"","","","","","html-keyboard-response","227","910137","0.0-5.0-1.0-1.0-0.0-5.0-0.0-1.0","null","","null","<p style='font-size: 35px; color: white'>您的正确率为： 92% 。平均反应时为：1102毫秒。</p>","","","","","","","","","","","","","","","","","","","","","","","","","","","","","","","","","","","","","","","","","","","","","","","",""
"","","","","","html-keyboard-response","228","911614","0.0-5.0-1.0-1.0-0.0-6.0-0.0-0.0-0.0","null","fixation","null","<p style='font-size: 48px; color: white'>+</p >","","","","","","","","","","","","","","","","","","","","","","","","","","","","","","","","","","","","","","","","","","","","","","","",""
"","","","","","rdk","229","913464","0.0-5.0-1.0-1.0-0.0-6.0-0.0-0.0-1.0","873","color_test","d","","true","[""d"",""k""]","d","3000","true","1","100","0","0","0","3","1","-1","2","300","300","[""hsl(0, 50%, 50%)"",""hsl(225, 50%, 50%)""]","[""hsl(0, 50%, 50%)"",""hsl(225, 50%, 50%)""]","0.5","0.54","0","circle","black","3","2","2","16.826923076923077","[11,16,17,17,17,17,17,17,16,17,17,17,17,17,17,17,17,17,17,17,17,17,17,17,17,17,17,17,17,17,17,17,17,17,17,17,17,17,17,17,17,17,17,17,17,17,17,17,17,17,16,17]","52","960","484.5","false","20","20","black","1","false","1","1","1920","969","d","staircase_color","","","","",""
"","","","","","html-keyboard-response","230","914939","0.0-5.0-1.0-1.0-0.0-6.0-0.0-0.0-2.0","null","","null","<p style='font-size: 60px; color: green'>正确!</p>","","","","","","","","","","","","","","","","","","","","","","","","","","","","","","","","","","","","","","","","","","","","","","","",""
"","","","","","html-keyboard-response","231","916415","0.0-5.0-1.0-1.0-0.0-6.0-0.0-0.0-0.1","null","fixation","null","<p style='font-size: 48px; color: white'>+</p >","","","","","","","","","","","","","","","","","","","","","","","","","","","","","","","","","","","","","","","","","","","","","","","",""
