"success","timeout","failed_images","failed_audio","failed_video","trial_type","trial_index","time_elapsed","internal_node_id","rt","part","response","stimulus","correct","choices","correct_choice","trial_duration","response_ends_trial","number_of_apertures","number_of_dots","coherent_direction","coherence","opposite_coherence","dot_radius","dot_side_length","dot_life","move_distance","aperture_width","aperture_height","dot_color","dot_color_final","color_change_delay","target_color_proportion","motion_change_delay","dot_shape","background_color","RDK_type","aperture_type","reinsert_type","frame_rate","frame_rate_array","number_of_frames","aperture_center_x","aperture_center_y","fixation_cross","fixation_cross_width","fixation_cross_height","fixation_cross_color","fixation_cross_thickness","border","border_thickness","border_color","canvas_width","canvas_height","correct_response","data_label","task","difficulty","isMatch","association","label"
"true","false","[]","[]","[]","preload","0","5","0.0-0.0","","","","","","","","","","","","","","","","","","","","","","","","","","","","","","","","","","","","","","","","","","","","","","","","","","","",""
"true","","","","","fullscreen","1","115833","0.0-1.0","114177","fullScreen","","","","","","","","","","","","","","","","","","","","","","","","","","","","","","","","","","","","","","","","","","","","","","","","","",""
"","","","","","survey","2","125663","0.0-2.0","9122","survey","{""sex"":""女"",""age"":18,""hands"":""右"",""color_blindness"":""都不是""}","","","","","","","","","","","","","","","","","","","","","","","","","","","","","","","","","","","","","","","","","","","","","","","","",""
"","","","","","survey-text","3","134528","0.0-3.0","8221","color_test","{""Q0"":""BE""}","","","","","","","","","","","","","","","","","","","","","","","","","","","","","","","","","","","","","","","","","","","","","","","","",""
"","","","","","html-keyboard-response","4","140242","0.0-4.0","5064","instruction_beginning"," ","
      <div style=""text-align: left; color: white"">
        <h3 style=""text-align: center; font-size: 30px; margin: 0;"">欢迎参与本实验</h3>
          <p>为充分保障您的权利，请确保您已经知晓并同意《参与实验同意书》以及《数据公开知情同意书》，</p>
          <p>如果您未见过上述内容，请咨询实验员 ，</p>
          <p>如果您选择继续实验，则表示您已经清楚两份知情同意书的内容并同意 。</p>
          <p>在整个实验中，您需要完成两项任务，具体的任务要求会在后面说明 ，</p>
          <p>请按空格键进入实验</p >
      </div>","","","","","","","","","","","","","","","","","","","","","","","","","","","","","","","","","","","","","","","","","","","","","","","",""
"","","","","","html-keyboard-response","5","162416","0.0-5.0-0.0","21526","instruction_getThreshold"," ","
        <div style=""text-align: left; color: white; padding: 10px""> 
          <h3 style=""text-align: center; font-size: 30px; margin: 10px"">欢迎进入实验！</h3>
          <p>在正式开始前，我们将通过一个快速测试为您打造专属的难度水平。<p>
          <p>接下来，屏幕上会呈现一些运动的圆点，其中一定比例的点为 <span style=""color: hsl(0, 50%, 50%)"">红色</span> ，其余为 <span style=""color: hsl(225, 50%, 50%)"">蓝色</span>，</p>
          <p>您需要在3秒内判断 <span style=""font-weight: bold"">散点图的整体颜色（即大多数点的颜色）是红色还是蓝色 </span>：</p >
          <ul>
            <li>整体为 <span style=""color: hsl(0, 50%, 50%)"">红色</span>，请按键盘 <span style=""color: hsl(0, 50%, 50%)"">""D"" 键</span></li>
            <li>整体为 <span style=""color: hsl(225, 50%, 50%)"">蓝色</span>，请按键盘 <span style=""color: hsl(225, 50%, 50%)"">""k"" 键</span> </li>
          </ul>
          <p>如有疑问请向主试咨询，没有则按下空格键开始</p>
        </div>","","","","","","","","","","","","","","","","","","","","","","","","","","","","","","","","","","","","","","","","","","","","","","","",""
"","","","","","html-keyboard-response","6","163563","0.0-5.0-1.0-1.0-0.0-0.0-0.0-0.0-0.0","null","fixation","null","<p style='font-size: 48px; color: white'>+</p >","","","","","","","","","","","","","","","","","","","","","","","","","","","","","","","","","","","","","","","","","","","","","","","",""
"","","","","","rdk","7","165815","0.0-5.0-1.0-1.0-0.0-0.0-0.0-0.0-1.0","1605","color_test","k","","true","[""d"",""k""]","k","3000","true","1","100","0","0","0","3","1","-1","2","300","300","[""hsl(0, 50%, 50%)"",""hsl(225, 50%, 50%)""]","[""hsl(225, 50%, 50%)"",""hsl(0, 50%, 50%)""]","0.5","0.58","0","circle","black","3","2","2","16.875","[17,16,17,17,17,17,17,17,17,17,17,17,17,16,17,17,17,18,16,17,17,16,17,17,16,17,17,17,15,17,17,17,17,17,17,17,17,17,17,16,17,18,16,17,17,17,17,17,17,17,17,17,17,17,17,17,17,17,17,17,16,17,16,17,17,17,17,17,16,17,17,17,17,17,17,17,17,17,17,17,17,17,17,17,17,17,17,17,16,17,17,17,17,17,17,16]","96","960","484.5","false","20","20","black","1","false","1","1","1920","969","k","staircase_color","","","","",""
"","","","","","html-keyboard-response","8","166964","0.0-5.0-1.0-1.0-0.0-0.0-0.0-0.0-2.0","null","","null","<p style='font-size: 60px; color: green'>正确!</p>","","","","","","","","","","","","","","","","","","","","","","","","","","","","","","","","","","","","","","","","","","","","","","","",""
"","","","","","html-keyboard-response","9","168113","0.0-5.0-1.0-1.0-0.0-0.0-0.0-0.0-0.1","null","fixation","null","<p style='font-size: 48px; color: white'>+</p >","","","","","","","","","","","","","","","","","","","","","","","","","","","","","","","","","","","","","","","","","","","","","","","",""
"","","","","","rdk","10","169736","0.0-5.0-1.0-1.0-0.0-0.0-0.0-0.0-1.1","979","color_test","d","","true","[""d"",""k""]","d","3000","true","1","100","0","0","0","3","1","-1","2","300","300","[""hsl(0, 50%, 50%)"",""hsl(225, 50%, 50%)""]","[""hsl(0, 50%, 50%)"",""hsl(225, 50%, 50%)""]","0.5","0.58","0","circle","black","3","2","2","16.627118644067796","[4,15,16,17,17,17,17,17,17,17,17,17,17,17,17,17,17,17,17,18,15,16,17,17,17,17,17,16,17,17,17,17,17,16,17,17,17,17,17,17,17,15,17,17,17,17,17,17,17,17,17,17,17,17,17,17,17,17,17]","59","960","484.5","false","20","20","black","1","false","1","1","1920","969","d","staircase_color","","","","",""
"","","","","","html-keyboard-response","11","170881","0.0-5.0-1.0-1.0-0.0-0.0-0.0-0.0-2.1","null","","null","<p style='font-size: 60px; color: green'>正确!</p>","","","","","","","","","","","","","","","","","","","","","","","","","","","","","","","","","","","","","","","","","","","","","","","",""
"","","","","","html-keyboard-response","12","172029","0.0-5.0-1.0-1.0-0.0-0.0-0.0-0.0-0.2","null","fixation","null","<p style='font-size: 48px; color: white'>+</p >","","","","","","","","","","","","","","","","","","","","","","","","","","","","","","","","","","","","","","","","","","","","","","","",""
"","","","","","rdk","13","173936","0.0-5.0-1.0-1.0-0.0-0.0-0.0-0.0-1.2","1263","color_test","k","","true","[""d"",""k""]","k","3000","true","1","100","0","0","0","3","1","-1","2","300","300","[""hsl(0, 50%, 50%)"",""hsl(225, 50%, 50%)""]","[""hsl(225, 50%, 50%)"",""hsl(0, 50%, 50%)""]","0.5","0.58","0","circle","black","3","2","2","16.776315789473685","[3,16,17,17,17,17,17,17,17,17,17,17,17,17,17,17,17,17,17,17,17,17,17,17,17,17,17,17,17,17,17,17,17,17,17,17,17,17,17,17,17,17,17,17,16,17,17,17,17,17,17,17,17,17,17,17,17,17,17,17,17,17,17,17,17,17,17,17,17,17,17,17,17,17,16,17]","76","960","484.5","false","20","20","black","1","false","1","1","1920","969","k","staircase_color","","","","",""
"","","","","","html-keyboard-response","14","175096","0.0-5.0-1.0-1.0-0.0-0.0-0.0-0.0-2.2","null","","null","<p style='font-size: 60px; color: green'>正确!</p>","","","","","","","","","","","","","","","","","","","","","","","","","","","","","","","","","","","","","","","","","","","","","","","",""
"","","","","","html-keyboard-response","15","176246","0.0-5.0-1.0-1.0-0.0-0.0-0.0-0.0-0.3","null","fixation","null","<p style='font-size: 48px; color: white'>+</p >","","","","","","","","","","","","","","","","","","","","","","","","","","","","","","","","","","","","","","","","","","","","","","","",""
"","","","","","rdk","16","177747","0.0-5.0-1.0-1.0-0.0-0.0-0.0-0.0-1.3","858","color_test","d","","true","[""d"",""k""]","d","3000","true","1","100","0","0","0","3","1","-1","2","300","300","[""hsl(0, 50%, 50%)"",""hsl(225, 50%, 50%)""]","[""hsl(0, 50%, 50%)"",""hsl(225, 50%, 50%)""]","0.5","0.58","0","circle","black","3","2","2","16.596153846153847","[4,17,17,17,17,17,17,17,17,16,17,16,17,16,17,17,17,17,17,17,17,17,17,17,17,17,17,16,17,16,17,17,16,17,17,17,17,17,17,17,17,16,17,17,17,17,17,17,17,16,17,17]","52","960","484.5","false","20","20","black","1","false","1","1","1920","969","d","staircase_color","","","","",""
"","","","","","html-keyboard-response","17","178898","0.0-5.0-1.0-1.0-0.0-0.0-0.0-0.0-2.3","null","","null","<p style='font-size: 60px; color: green'>正确!</p>","","","","","","","","","","","","","","","","","","","","","","","","","","","","","","","","","","","","","","","","","","","","","","","",""
"","","","","","html-keyboard-response","18","180047","0.0-5.0-1.0-1.0-0.0-0.0-0.0-0.0-0.4","null","fixation","null","<p style='font-size: 48px; color: white'>+</p >","","","","","","","","","","","","","","","","","","","","","","","","","","","","","","","","","","","","","","","","","","","","","","","",""
"","","","","","rdk","19","182041","0.0-5.0-1.0-1.0-0.0-0.0-0.0-0.0-1.4","1351","color_test","k","","true","[""d"",""k""]","k","3000","true","1","100","0","0","0","3","1","-1","2","300","300","[""hsl(0, 50%, 50%)"",""hsl(225, 50%, 50%)""]","[""hsl(225, 50%, 50%)"",""hsl(0, 50%, 50%)""]","0.5","0.58","0","circle","black","3","2","2","16.691358024691358","[8,14,17,17,17,17,17,17,17,17,17,17,17,16,17,17,17,17,17,17,17,16,17,16,17,17,17,16,17,16,17,17,17,17,17,17,17,17,16,17,17,17,16,17,17,17,16,17,17,17,17,17,17,17,17,17,16,17,18,15,17,17,17,17,17,17,16,17,17,17,17,17,17,17,17,17,16,17,17,17,16]","81","960","484.5","false","20","20","black","1","false","1","1","1920","969","k","staircase_color","","","","",""
"","","","","","html-keyboard-response","20","183197","0.0-5.0-1.0-1.0-0.0-0.0-0.0-0.0-2.4","null","","null","<p style='font-size: 60px; color: green'>正确!</p>","","","","","","","","","","","","","","","","","","","","","","","","","","","","","","","","","","","","","","","","","","","","","","","",""
"","","","","","html-keyboard-response","21","184347","0.0-5.0-1.0-1.0-0.0-0.0-0.0-0.0-0.5","null","fixation","null","<p style='font-size: 48px; color: white'>+</p >","","","","","","","","","","","","","","","","","","","","","","","","","","","","","","","","","","","","","","","","","","","","","","","",""
"","","","","","rdk","22","185888","0.0-5.0-1.0-1.0-0.0-0.0-0.0-0.0-1.5","899","color_test","d","","true","[""d"",""k""]","d","3000","true","1","100","0","0","0","3","1","-1","2","300","300","[""hsl(0, 50%, 50%)"",""hsl(225, 50%, 50%)""]","[""hsl(0, 50%, 50%)"",""hsl(225, 50%, 50%)""]","0.5","0.58","0","circle","black","3","2","2","16.574074074074073","[3,17,17,17,17,17,17,17,17,17,17,17,17,17,17,17,17,16,17,17,17,17,17,17,15,17,17,17,17,17,16,17,17,17,17,16,17,17,17,17,17,16,17,17,16,17,17,16,17,17,17,16,17,17]","54","960","484.5","false","20","20","black","1","false","1","1","1920","969","d","staircase_color","","","","",""
"","","","","","html-keyboard-response","23","187046","0.0-5.0-1.0-1.0-0.0-0.0-0.0-0.0-2.5","null","","null","<p style='font-size: 60px; color: green'>正确!</p>","","","","","","","","","","","","","","","","","","","","","","","","","","","","","","","","","","","","","","","","","","","","","","","",""
"","","","","","html-keyboard-response","24","188196","0.0-5.0-1.0-1.0-0.0-0.0-0.0-0.0-0.6","null","fixation","null","<p style='font-size: 48px; color: white'>+</p >","","","","","","","","","","","","","","","","","","","","","","","","","","","","","","","","","","","","","","","","","","","","","","","",""
"","","","","","rdk","25","189800","0.0-5.0-1.0-1.0-0.0-0.0-0.0-0.0-1.6","961","color_test","k","","true","[""d"",""k""]","k","3000","true","1","100","0","0","0","3","1","-1","2","300","300","[""hsl(0, 50%, 50%)"",""hsl(225, 50%, 50%)""]","[""hsl(225, 50%, 50%)"",""hsl(0, 50%, 50%)""]","0.5","0.58","0","circle","black","3","2","2","16.655172413793103","[5,17,17,17,17,17,17,17,16,17,17,17,17,16,17,17,17,17,17,17,17,17,17,17,16,17,17,16,17,17,17,16,17,16,17,17,16,17,17,17,17,17,17,17,17,17,17,17,17,17,17,17,17,17,17,17,16,17]","58","960","484.5","false","20","20","black","1","false","1","1","1920","969","k","staircase_color","","","","",""
"","","","","","html-keyboard-response","26","190948","0.0-5.0-1.0-1.0-0.0-0.0-0.0-0.0-2.6","null","","null","<p style='font-size: 60px; color: green'>正确!</p>","","","","","","","","","","","","","","","","","","","","","","","","","","","","","","","","","","","","","","","","","","","","","","","",""
"","","","","","html-keyboard-response","27","192097","0.0-5.0-1.0-1.0-0.0-0.0-0.0-0.0-0.7","null","fixation","null","<p style='font-size: 48px; color: white'>+</p >","","","","","","","","","","","","","","","","","","","","","","","","","","","","","","","","","","","","","","","","","","","","","","","",""
"","","","","","rdk","28","193472","0.0-5.0-1.0-1.0-0.0-0.0-0.0-0.0-1.7","733","color_test","d","","true","[""d"",""k""]","d","3000","true","1","100","0","0","0","3","1","-1","2","300","300","[""hsl(0, 50%, 50%)"",""hsl(225, 50%, 50%)""]","[""hsl(0, 50%, 50%)"",""hsl(225, 50%, 50%)""]","0.5","0.58","0","circle","black","3","2","2","16.636363636363637","[4,17,17,17,16,17,17,17,17,17,17,16,17,17,17,17,17,17,17,17,17,17,17,17,17,17,17,17,17,17,17,17,17,17,16,17,17,17,17,17,17,17,17,17]","44","960","484.5","false","20","20","black","1","false","1","1","1920","969","d","staircase_color","","","","",""
"","","","","","html-keyboard-response","29","194630","0.0-5.0-1.0-1.0-0.0-0.0-0.0-0.0-2.7","null","","null","<p style='font-size: 60px; color: green'>正确!</p>","","","","","","","","","","","","","","","","","","","","","","","","","","","","","","","","","","","","","","","","","","","","","","","",""
"","","","","","html-keyboard-response","30","195780","0.0-5.0-1.0-1.0-0.0-0.0-0.0-0.0-0.8","null","fixation","null","<p style='font-size: 48px; color: white'>+</p >","","","","","","","","","","","","","","","","","","","","","","","","","","","","","","","","","","","","","","","","","","","","","","","",""
"","","","","","rdk","31","197231","0.0-5.0-1.0-1.0-0.0-0.0-0.0-0.0-1.8","808","color_test","k","","true","[""d"",""k""]","k","3000","true","1","100","0","0","0","3","1","-1","2","300","300","[""hsl(0, 50%, 50%)"",""hsl(225, 50%, 50%)""]","[""hsl(225, 50%, 50%)"",""hsl(0, 50%, 50%)""]","0.5","0.58","0","circle","black","3","2","2","16.571428571428573","[6,13,17,16,17,17,17,17,17,17,17,17,17,17,17,17,17,17,17,17,17,17,17,17,16,17,17,17,17,17,17,17,16,17,16,17,17,16,17,17,17,17,17,18,16,17,17,17,16]","49","960","484.5","false","20","20","black","1","false","1","1","1920","969","k","staircase_color","","","","",""
"","","","","","html-keyboard-response","32","198381","0.0-5.0-1.0-1.0-0.0-0.0-0.0-0.0-2.8","null","","null","<p style='font-size: 60px; color: green'>正确!</p>","","","","","","","","","","","","","","","","","","","","","","","","","","","","","","","","","","","","","","","","","","","","","","","",""
"","","","","","html-keyboard-response","33","199530","0.0-5.0-1.0-1.0-0.0-0.0-0.0-0.0-0.9","null","fixation","null","<p style='font-size: 48px; color: white'>+</p >","","","","","","","","","","","","","","","","","","","","","","","","","","","","","","","","","","","","","","","","","","","","","","","",""
"","","","","","rdk","34","200696","0.0-5.0-1.0-1.0-0.0-0.0-0.0-0.0-1.9","524","color_test","d","","true","[""d"",""k""]","d","3000","true","1","100","0","0","0","3","1","-1","2","300","300","[""hsl(0, 50%, 50%)"",""hsl(225, 50%, 50%)""]","[""hsl(0, 50%, 50%)"",""hsl(225, 50%, 50%)""]","0.5","0.58","0","circle","black","3","2","2","16.53125","[5,17,17,17,17,17,17,17,17,17,17,17,17,17,17,17,17,17,17,17,17,15,16,17,17,17,17,17,17,17,16,18]","32","960","484.5","false","20","20","black","1","false","1","1","1920","969","d","staircase_color","","","","",""
"","","","","","html-keyboard-response","35","201848","0.0-5.0-1.0-1.0-0.0-0.0-0.0-0.0-2.9","null","","null","<p style='font-size: 60px; color: green'>正确!</p>","","","","","","","","","","","","","","","","","","","","","","","","","","","","","","","","","","","","","","","","","","","","","","","",""
"","","","","","html-keyboard-response","36","202996","0.0-5.0-1.0-1.0-0.0-0.0-0.0-0.0-0.10","null","fixation","null","<p style='font-size: 48px; color: white'>+</p >","","","","","","","","","","","","","","","","","","","","","","","","","","","","","","","","","","","","","","","","","","","","","","","",""
"","","","","","rdk","37","204424","0.0-5.0-1.0-1.0-0.0-0.0-0.0-0.0-1.10","785","color_test","d","","true","[""d"",""k""]","d","3000","true","1","100","0","0","0","3","1","-1","2","300","300","[""hsl(0, 50%, 50%)"",""hsl(225, 50%, 50%)""]","[""hsl(0, 50%, 50%)"",""hsl(225, 50%, 50%)""]","0.5","0.58","0","circle","black","3","2","2","16.617021276595743","[3,17,17,17,17,17,17,17,17,17,17,17,17,16,17,17,17,17,17,17,17,17,17,17,17,17,17,17,16,17,17,16,17,17,17,17,17,17,17,17,17,17,17,17,16,17,17]","47","960","484.5","false","20","20","black","1","false","1","1","1920","969","d","staircase_color","","","","",""
"","","","","","html-keyboard-response","38","205579","0.0-5.0-1.0-1.0-0.0-0.0-0.0-0.0-2.10","null","","null","<p style='font-size: 60px; color: green'>正确!</p>","","","","","","","","","","","","","","","","","","","","","","","","","","","","","","","","","","","","","","","","","","","","","","","",""
"","","","","","html-keyboard-response","39","206729","0.0-5.0-1.0-1.0-0.0-0.0-0.0-0.0-0.11","null","fixation","null","<p style='font-size: 48px; color: white'>+</p >","","","","","","","","","","","","","","","","","","","","","","","","","","","","","","","","","","","","","","","","","","","","","","","",""
"","","","","","rdk","40","208515","0.0-5.0-1.0-1.0-0.0-0.0-0.0-0.0-1.11","1142","color_test","k","","true","[""d"",""k""]","k","3000","true","1","100","0","0","0","3","1","-1","2","300","300","[""hsl(0, 50%, 50%)"",""hsl(225, 50%, 50%)""]","[""hsl(225, 50%, 50%)"",""hsl(0, 50%, 50%)""]","0.5","0.58","0","circle","black","3","2","2","16.652173913043477","[3,17,17,17,17,17,17,17,17,17,17,16,17,16,16,17,17,17,17,16,17,17,17,17,17,17,16,17,17,16,17,17,17,16,17,17,17,17,16,17,17,17,17,17,16,17,17,17,17,17,17,17,17,17,17,16,17,17,17,17,17,16,17,17,17,17,17,17,18]","69","960","484.5","false","20","20","black","1","false","1","1","1920","969","k","staircase_color","","","","",""
"","","","","","html-keyboard-response","41","209665","0.0-5.0-1.0-1.0-0.0-0.0-0.0-0.0-2.11","null","","null","<p style='font-size: 60px; color: green'>正确!</p>","","","","","","","","","","","","","","","","","","","","","","","","","","","","","","","","","","","","","","","","","","","","","","","",""
"","","","","","html-keyboard-response","42","212314","0.0-5.0-1.0-1.0-0.0-0.0-0.0-1.0","null","","null","<p style='font-size: 35px; color: white'>您的正确率为： 100% 。平均反应时为：992毫秒。</p>","","","","","","","","","","","","","","","","","","","","","","","","","","","","","","","","","","","","","","","","","","","","","","","",""
"","","","","","html-keyboard-response","43","213463","0.0-5.0-1.0-1.0-0.0-1.0-0.0-0.0-0.0","null","fixation","null","<p style='font-size: 48px; color: white'>+</p >","","","","","","","","","","","","","","","","","","","","","","","","","","","","","","","","","","","","","","","","","","","","","","","",""
"","","","","","rdk","44","215176","0.0-5.0-1.0-1.0-0.0-1.0-0.0-0.0-1.0","1064","color_test","k","","true","[""d"",""k""]","k","3000","true","1","100","0","0","0","3","1","-1","2","300","300","[""hsl(0, 50%, 50%)"",""hsl(225, 50%, 50%)""]","[""hsl(225, 50%, 50%)"",""hsl(0, 50%, 50%)""]","0.5","0.56","0","circle","black","3","2","2","16.53125","[1,15,17,17,17,17,17,16,17,17,17,17,17,17,17,15,17,17,16,18,16,17,17,17,17,17,17,17,15,17,17,16,17,17,17,17,17,17,17,17,17,16,17,17,17,17,16,16,17,16,17,17,17,17,17,17,17,17,16,17,17,17,17,17]","64","960","484.5","false","20","20","black","1","false","1","1","1920","969","k","staircase_color","","","","",""
"","","","","","html-keyboard-response","45","216331","0.0-5.0-1.0-1.0-0.0-1.0-0.0-0.0-2.0","null","","null","<p style='font-size: 60px; color: green'>正确!</p>","","","","","","","","","","","","","","","","","","","","","","","","","","","","","","","","","","","","","","","","","","","","","","","",""
"","","","","","html-keyboard-response","46","217480","0.0-5.0-1.0-1.0-0.0-1.0-0.0-0.0-0.1","null","fixation","null","<p style='font-size: 48px; color: white'>+</p >","","","","","","","","","","","","","","","","","","","","","","","","","","","","","","","","","","","","","","","","","","","","","","","",""
"","","","","","rdk","47","218784","0.0-5.0-1.0-1.0-0.0-1.0-0.0-0.0-1.1","660","color_test","d","","true","[""d"",""k""]","d","3000","true","1","100","0","0","0","3","1","-1","2","300","300","[""hsl(0, 50%, 50%)"",""hsl(225, 50%, 50%)""]","[""hsl(0, 50%, 50%)"",""hsl(225, 50%, 50%)""]","0.5","0.56","0","circle","black","3","2","2","16.6","[3,16,17,17,17,17,17,17,17,17,17,17,16,17,17,17,17,17,17,17,17,17,17,17,17,17,17,17,17,17,17,17,17,17,17,17,17,17,17,17]","40","960","484.5","false","20","20","black","1","false","1","1","1920","969","d","staircase_color","","","","",""
"","","","","","html-keyboard-response","48","219931","0.0-5.0-1.0-1.0-0.0-1.0-0.0-0.0-2.1","null","","null","<p style='font-size: 60px; color: green'>正确!</p>","","","","","","","","","","","","","","","","","","","","","","","","","","","","","","","","","","","","","","","","","","","","","","","",""
"","","","","","html-keyboard-response","49","221081","0.0-5.0-1.0-1.0-0.0-1.0-0.0-0.0-0.2","null","fixation","null","<p style='font-size: 48px; color: white'>+</p >","","","","","","","","","","","","","","","","","","","","","","","","","","","","","","","","","","","","","","","","","","","","","","","",""
"","","","","","rdk","50","222592","0.0-5.0-1.0-1.0-0.0-1.0-0.0-0.0-1.2","867","color_test","k","","true","[""d"",""k""]","k","3000","true","1","100","0","0","0","3","1","-1","2","300","300","[""hsl(0, 50%, 50%)"",""hsl(225, 50%, 50%)""]","[""hsl(225, 50%, 50%)"",""hsl(0, 50%, 50%)""]","0.5","0.56","0","circle","black","3","2","2","16.71153846153846","[3,16,17,17,17,17,17,17,17,17,17,17,17,17,17,17,17,17,17,17,17,17,17,17,17,17,17,17,17,17,17,17,17,17,17,17,17,17,17,17,17,17,17,17,17,17,17,17,17,17,17,17]","52","960","484.5","false","20","20","black","1","false","1","1","1920","969","k","staircase_color","","","","",""
"","","","","","html-keyboard-response","51","223748","0.0-5.0-1.0-1.0-0.0-1.0-0.0-0.0-2.2","null","","null","<p style='font-size: 60px; color: green'>正确!</p>","","","","","","","","","","","","","","","","","","","","","","","","","","","","","","","","","","","","","","","","","","","","","","","",""
"","","","","","html-keyboard-response","52","224895","0.0-5.0-1.0-1.0-0.0-1.0-0.0-0.0-0.3","null","fixation","null","<p style='font-size: 48px; color: white'>+</p >","","","","","","","","","","","","","","","","","","","","","","","","","","","","","","","","","","","","","","","","","","","","","","","",""
"","","","","","rdk","53","226115","0.0-5.0-1.0-1.0-0.0-1.0-0.0-0.0-1.3","575","color_test","d","","true","[""d"",""k""]","d","3000","true","1","100","0","0","0","3","1","-1","2","300","300","[""hsl(0, 50%, 50%)"",""hsl(225, 50%, 50%)""]","[""hsl(0, 50%, 50%)"",""hsl(225, 50%, 50%)""]","0.5","0.56","0","circle","black","3","2","2","16.542857142857144","[2,17,17,17,17,17,17,17,17,16,17,17,17,17,17,17,17,17,16,17,17,17,17,17,17,17,17,17,17,17,17,17,17,17,18]","35","960","484.5","false","20","20","black","1","false","1","1","1920","969","d","staircase_color","","","","",""
"","","","","","html-keyboard-response","54","227264","0.0-5.0-1.0-1.0-0.0-1.0-0.0-0.0-2.3","null","","null","<p style='font-size: 60px; color: green'>正确!</p>","","","","","","","","","","","","","","","","","","","","","","","","","","","","","","","","","","","","","","","","","","","","","","","",""
"","","","","","html-keyboard-response","55","228412","0.0-5.0-1.0-1.0-0.0-1.0-0.0-0.0-0.4","null","fixation","null","<p style='font-size: 48px; color: white'>+</p >","","","","","","","","","","","","","","","","","","","","","","","","","","","","","","","","","","","","","","","","","","","","","","","",""
"","","","","","rdk","56","229649","0.0-5.0-1.0-1.0-0.0-1.0-0.0-0.0-1.4","593","color_test","k","","true","[""d"",""k""]","k","3000","true","1","100","0","0","0","3","1","-1","2","300","300","[""hsl(0, 50%, 50%)"",""hsl(225, 50%, 50%)""]","[""hsl(225, 50%, 50%)"",""hsl(0, 50%, 50%)""]","0.5","0.56","0","circle","black","3","2","2","16.583333333333332","[2,17,17,17,17,17,17,17,17,17,17,17,17,17,17,17,17,17,17,17,17,17,17,17,17,17,17,17,17,17,17,17,17,17,17,17]","36","960","484.5","false","20","20","black","1","false","1","1","1920","969","k","staircase_color","","","","",""
"","","","","","html-keyboard-response","57","230797","0.0-5.0-1.0-1.0-0.0-1.0-0.0-0.0-2.4","null","","null","<p style='font-size: 60px; color: green'>正确!</p>","","","","","","","","","","","","","","","","","","","","","","","","","","","","","","","","","","","","","","","","","","","","","","","",""
"","","","","","html-keyboard-response","58","231948","0.0-5.0-1.0-1.0-0.0-1.0-0.0-0.0-0.5","null","fixation","null","<p style='font-size: 48px; color: white'>+</p >","","","","","","","","","","","","","","","","","","","","","","","","","","","","","","","","","","","","","","","","","","","","","","","",""
"","","","","","rdk","59","233632","0.0-5.0-1.0-1.0-0.0-1.0-0.0-0.0-1.5","1042","color_test","k","","true","[""d"",""k""]","k","3000","true","1","100","0","0","0","3","1","-1","2","300","300","[""hsl(0, 50%, 50%)"",""hsl(225, 50%, 50%)""]","[""hsl(225, 50%, 50%)"",""hsl(0, 50%, 50%)""]","0.5","0.56","0","circle","black","3","2","2","16.73015873015873","[3,16,17,17,17,17,17,17,17,17,17,17,17,17,17,17,17,17,17,17,17,17,17,17,17,17,17,17,17,17,17,17,17,17,17,17,17,17,17,17,17,16,17,17,16,17,17,17,17,17,17,17,17,17,17,17,17,17,17,17,17,17,17]","63","960","484.5","false","20","20","black","1","false","1","1","1920","969","k","staircase_color","","","","",""
"","","","","","html-keyboard-response","60","234781","0.0-5.0-1.0-1.0-0.0-1.0-0.0-0.0-2.5","null","","null","<p style='font-size: 60px; color: green'>正确!</p>","","","","","","","","","","","","","","","","","","","","","","","","","","","","","","","","","","","","","","","","","","","","","","","",""
"","","","","","html-keyboard-response","61","235929","0.0-5.0-1.0-1.0-0.0-1.0-0.0-0.0-0.6","null","fixation","null","<p style='font-size: 48px; color: white'>+</p >","","","","","","","","","","","","","","","","","","","","","","","","","","","","","","","","","","","","","","","","","","","","","","","",""
"","","","","","rdk","62","237472","0.0-5.0-1.0-1.0-0.0-1.0-0.0-0.0-1.6","899","color_test","d","","true","[""d"",""k""]","d","3000","true","1","100","0","0","0","3","1","-1","2","300","300","[""hsl(0, 50%, 50%)"",""hsl(225, 50%, 50%)""]","[""hsl(0, 50%, 50%)"",""hsl(225, 50%, 50%)""]","0.5","0.56","0","circle","black","3","2","2","16.64814814814815","[3,17,17,17,17,17,17,17,17,17,17,17,17,17,17,17,15,17,17,17,16,17,17,17,17,17,17,17,17,17,17,17,17,17,17,17,17,17,17,17,17,18,15,17,16,17,17,17,17,17,17,17,17,17]","54","960","484.5","false","20","20","black","1","false","1","1","1920","969","d","staircase_color","","","","",""
"","","","","","html-keyboard-response","63","238614","0.0-5.0-1.0-1.0-0.0-1.0-0.0-0.0-2.6","null","","null","<p style='font-size: 60px; color: green'>正确!</p>","","","","","","","","","","","","","","","","","","","","","","","","","","","","","","","","","","","","","","","","","","","","","","","",""
"","","","","","html-keyboard-response","64","239763","0.0-5.0-1.0-1.0-0.0-1.0-0.0-0.0-0.7","null","fixation","null","<p style='font-size: 48px; color: white'>+</p >","","","","","","","","","","","","","","","","","","","","","","","","","","","","","","","","","","","","","","","","","","","","","","","",""
"","","","","","rdk","65","241672","0.0-5.0-1.0-1.0-0.0-1.0-0.0-0.0-1.7","1267","color_test","d","","true","[""d"",""k""]","d","3000","true","1","100","0","0","0","3","1","-1","2","300","300","[""hsl(0, 50%, 50%)"",""hsl(225, 50%, 50%)""]","[""hsl(0, 50%, 50%)"",""hsl(225, 50%, 50%)""]","0.5","0.56","0","circle","black","3","2","2","16.763157894736842","[5,15,17,17,17,17,17,16,17,17,17,17,17,17,17,17,17,17,17,17,17,17,17,17,17,17,17,17,17,17,16,17,17,17,17,17,17,17,17,17,17,17,17,17,16,17,17,17,17,17,17,17,17,17,17,17,17,17,17,17,17,17,17,17,17,17,16,17,17,17,17,17,17,17,17,17]","76","960","484.5","false","20","20","black","1","false","1","1","1920","969","d","staircase_color","","","","",""
"","","","","","html-keyboard-response","66","242830","0.0-5.0-1.0-1.0-0.0-1.0-0.0-0.0-2.7","null","","null","<p style='font-size: 60px; color: green'>正确!</p>","","","","","","","","","","","","","","","","","","","","","","","","","","","","","","","","","","","","","","","","","","","","","","","",""
"","","","","","html-keyboard-response","67","243980","0.0-5.0-1.0-1.0-0.0-1.0-0.0-0.0-0.8","null","fixation","null","<p style='font-size: 48px; color: white'>+</p >","","","","","","","","","","","","","","","","","","","","","","","","","","","","","","","","","","","","","","","","","","","","","","","",""
"","","","","","rdk","68","245959","0.0-5.0-1.0-1.0-0.0-1.0-0.0-0.0-1.8","1338","color_test","k","","true","[""d"",""k""]","k","3000","true","1","100","0","0","0","3","1","-1","2","300","300","[""hsl(0, 50%, 50%)"",""hsl(225, 50%, 50%)""]","[""hsl(225, 50%, 50%)"",""hsl(0, 50%, 50%)""]","0.5","0.56","0","circle","black","3","2","2","16.7","[4,16,17,17,17,16,17,17,17,17,17,16,17,16,17,17,17,17,16,17,17,17,17,16,17,17,17,17,16,17,17,17,17,17,17,17,17,17,16,17,17,16,17,17,17,17,17,17,17,17,17,17,17,17,17,17,17,17,17,17,17,17,17,17,17,17,16,17,17,17,17,17,17,17,17,17,25,8,17,17]","80","960","484.5","false","20","20","black","1","false","1","1","1920","969","k","staircase_color","","","","",""
"","","","","","html-keyboard-response","69","247113","0.0-5.0-1.0-1.0-0.0-1.0-0.0-0.0-2.8","null","","null","<p style='font-size: 60px; color: green'>正确!</p>","","","","","","","","","","","","","","","","","","","","","","","","","","","","","","","","","","","","","","","","","","","","","","","",""
"","","","","","html-keyboard-response","70","248262","0.0-5.0-1.0-1.0-0.0-1.0-0.0-0.0-0.9","null","fixation","null","<p style='font-size: 48px; color: white'>+</p >","","","","","","","","","","","","","","","","","","","","","","","","","","","","","","","","","","","","","","","","","","","","","","","",""
"","","","","","rdk","71","249888","0.0-5.0-1.0-1.0-0.0-1.0-0.0-0.0-1.9","983","color_test","k","","true","[""d"",""k""]","k","3000","true","1","100","0","0","0","3","1","-1","2","300","300","[""hsl(0, 50%, 50%)"",""hsl(225, 50%, 50%)""]","[""hsl(225, 50%, 50%)"",""hsl(0, 50%, 50%)""]","0.5","0.56","0","circle","black","3","2","2","16.76271186440678","[4,17,17,17,17,17,17,17,17,17,17,17,17,17,17,17,17,17,17,17,17,17,17,17,17,17,17,17,17,17,17,17,17,17,17,17,17,17,17,17,17,17,17,17,16,17,17,17,17,17,17,17,17,17,17,17,17,17,17]","59","960","484.5","false","20","20","black","1","false","1","1","1920","969","k","staircase_color","","","","",""
"","","","","","html-keyboard-response","72","251046","0.0-5.0-1.0-1.0-0.0-1.0-0.0-0.0-2.9","null","","null","<p style='font-size: 60px; color: green'>正确!</p>","","","","","","","","","","","","","","","","","","","","","","","","","","","","","","","","","","","","","","","","","","","","","","","",""
"","","","","","html-keyboard-response","73","252196","0.0-5.0-1.0-1.0-0.0-1.0-0.0-0.0-0.10","null","fixation","null","<p style='font-size: 48px; color: white'>+</p >","","","","","","","","","","","","","","","","","","","","","","","","","","","","","","","","","","","","","","","","","","","","","","","",""
"","","","","","rdk","74","253544","0.0-5.0-1.0-1.0-0.0-1.0-0.0-0.0-1.10","706","color_test","d","","true","[""d"",""k""]","d","3000","true","1","100","0","0","0","3","1","-1","2","300","300","[""hsl(0, 50%, 50%)"",""hsl(225, 50%, 50%)""]","[""hsl(0, 50%, 50%)"",""hsl(225, 50%, 50%)""]","0.5","0.56","0","circle","black","3","2","2","16.595238095238095","[4,17,16,17,17,17,17,17,16,16,17,17,17,17,17,17,17,17,17,17,17,17,17,17,17,17,17,17,16,17,17,17,17,17,17,17,17,17,17,17,17,17]","42","960","484.5","false","20","20","black","1","false","1","1","1920","969","d","staircase_color","","","","",""
"","","","","","html-keyboard-response","75","254696","0.0-5.0-1.0-1.0-0.0-1.0-0.0-0.0-2.10","null","","null","<p style='font-size: 60px; color: green'>正确!</p>","","","","","","","","","","","","","","","","","","","","","","","","","","","","","","","","","","","","","","","","","","","","","","","",""
"","","","","","html-keyboard-response","76","255845","0.0-5.0-1.0-1.0-0.0-1.0-0.0-0.0-0.11","null","fixation","null","<p style='font-size: 48px; color: white'>+</p >","","","","","","","","","","","","","","","","","","","","","","","","","","","","","","","","","","","","","","","","","","","","","","","",""
"","","","","","rdk","77","257440","0.0-5.0-1.0-1.0-0.0-1.0-0.0-0.0-1.11","951","color_test","k","","false","[""d"",""k""]","d","3000","true","1","100","0","0","0","3","1","-1","2","300","300","[""hsl(0, 50%, 50%)"",""hsl(225, 50%, 50%)""]","[""hsl(0, 50%, 50%)"",""hsl(225, 50%, 50%)""]","0.5","0.56","0","circle","black","3","2","2","16.666666666666668","[4,17,17,17,17,17,17,17,17,17,17,17,17,16,17,17,17,17,17,17,16,17,16,17,17,17,17,17,17,17,16,17,17,17,17,17,17,17,17,17,17,17,17,17,16,17,16,17,17,17,17,17,17,17,17,17,17]","57","960","484.5","false","20","20","black","1","false","1","1","1920","969","d","staircase_color","","","","",""
"","","","","","html-keyboard-response","78","258596","0.0-5.0-1.0-1.0-0.0-1.0-0.0-0.0-2.11","null","","null","<p style='font-size: 60px; color: red'>错误!</p>","","","","","","","","","","","","","","","","","","","","","","","","","","","","","","","","","","","","","","","","","","","","","","","",""
"","","","","","html-keyboard-response","79","261262","0.0-5.0-1.0-1.0-0.0-1.0-0.0-1.0","null","","null","<p style='font-size: 35px; color: white'>您的正确率为： 92% 。平均反应时为：912毫秒。</p>","","","","","","","","","","","","","","","","","","","","","","","","","","","","","","","","","","","","","","","","","","","","","","","",""
"","","","","","html-keyboard-response","80","262413","0.0-5.0-1.0-1.0-0.0-2.0-0.0-0.0-0.0","null","fixation","null","<p style='font-size: 48px; color: white'>+</p >","","","","","","","","","","","","","","","","","","","","","","","","","","","","","","","","","","","","","","","","","","","","","","","",""
"","","","","","rdk","81","264514","0.0-5.0-1.0-1.0-0.0-2.0-0.0-0.0-1.0","1459","color_test","k","","true","[""d"",""k""]","k","3000","true","1","100","0","0","0","3","1","-1","2","300","300","[""hsl(0, 50%, 50%)"",""hsl(225, 50%, 50%)""]","[""hsl(225, 50%, 50%)"",""hsl(0, 50%, 50%)""]","0.5","0.54","0","circle","black","3","2","2","16.65909090909091","[4,16,17,18,16,17,17,17,17,17,17,16,17,17,16,18,15,17,17,17,16,17,17,17,17,16,17,15,17,17,17,17,17,17,17,17,17,17,17,16,16,17,17,17,17,17,16,17,16,17,16,17,17,17,17,17,17,17,17,17,16,17,17,17,17,17,16,17,17,17,17,17,17,17,17,17,17,17,17,17,15,17,17,16,17,17,17,18]","88","960","484.5","false","20","20","black","1","false","1","1","1920","969","k","staircase_color","","","","",""
"","","","","","html-keyboard-response","82","265662","0.0-5.0-1.0-1.0-0.0-2.0-0.0-0.0-2.0","null","","null","<p style='font-size: 60px; color: green'>正确!</p>","","","","","","","","","","","","","","","","","","","","","","","","","","","","","","","","","","","","","","","","","","","","","","","",""
"","","","","","html-keyboard-response","83","266812","0.0-5.0-1.0-1.0-0.0-2.0-0.0-0.0-0.1","null","fixation","null","<p style='font-size: 48px; color: white'>+</p >","","","","","","","","","","","","","","","","","","","","","","","","","","","","","","","","","","","","","","","","","","","","","","","",""
"","","","","","rdk","84","268567","0.0-5.0-1.0-1.0-0.0-2.0-0.0-0.0-1.1","1112","color_test","k","","false","[""d"",""k""]","d","3000","true","1","100","0","0","0","3","1","-1","2","300","300","[""hsl(0, 50%, 50%)"",""hsl(225, 50%, 50%)""]","[""hsl(0, 50%, 50%)"",""hsl(225, 50%, 50%)""]","0.5","0.54","0","circle","black","3","2","2","16.65671641791045","[4,17,17,17,17,17,17,17,17,17,17,16,17,17,17,16,17,17,17,18,15,16,17,17,17,17,16,17,17,17,17,17,17,17,17,17,16,17,17,17,17,16,17,17,16,17,16,17,17,17,16,17,17,17,17,17,17,17,17,17,17,17,17,17,17,17,17]","67","960","484.5","false","20","20","black","1","false","1","1","1920","969","d","staircase_color","","","","",""
"","","","","","html-keyboard-response","85","269715","0.0-5.0-1.0-1.0-0.0-2.0-0.0-0.0-2.1","null","","null","<p style='font-size: 60px; color: red'>错误!</p>","","","","","","","","","","","","","","","","","","","","","","","","","","","","","","","","","","","","","","","","","","","","","","","",""
"","","","","","html-keyboard-response","86","270863","0.0-5.0-1.0-1.0-0.0-2.0-0.0-0.0-0.2","null","fixation","null","<p style='font-size: 48px; color: white'>+</p >","","","","","","","","","","","","","","","","","","","","","","","","","","","","","","","","","","","","","","","","","","","","","","","",""
"","","","","","rdk","87","274511","0.0-5.0-1.0-1.0-0.0-2.0-0.0-0.0-1.2","-1","color_test","","","false","[""d"",""k""]","d","3000","true","1","100","0","0","0","3","1","-1","2","300","300","[""hsl(0, 50%, 50%)"",""hsl(225, 50%, 50%)""]","[""hsl(0, 50%, 50%)"",""hsl(225, 50%, 50%)""]","0.5","0.54","0","circle","black","3","2","2","16.766666666666666","[4,16,17,16,17,17,17,17,17,17,16,17,17,16,17,17,17,17,16,17,17,17,16,17,17,16,17,17,17,17,17,17,17,17,17,17,17,17,17,17,17,17,17,17,17,17,17,17,17,17,17,17,17,16,17,15,17,17,17,17,17,17,17,17,16,17,16,17,17,17,17,17,17,17,17,16,17,17,17,17,17,17,17,17,17,17,17,17,16,17,17,17,17,17,16,17,17,17,16,17,17,17,17,16,17,17,17,17,16,17,17,16,17,17,17,17,17,17,16,17,17,17,16,17,16,17,17,17,17,17,17,16,17,17,17,17,17,16,17,17,17,17,17,17,17,17,17,17,17,17,17,17,17,17,17,16,17,17,17,17,16,17,17,17,17,17,17,17,16,17,17,17,17,17,17,17,16,17,16,17]","180","960","484.5","false","20","20","black","1","false","1","1","1920","969","d","staircase_color","","","","",""
"","","","","","html-keyboard-response","88","275664","0.0-5.0-1.0-1.0-0.0-2.0-0.0-0.0-2.2","null","","null","<p style='font-size: 60px; color: yellow'>太慢!</p>","","","","","","","","","","","","","","","","","","","","","","","","","","","","","","","","","","","","","","","","","","","","","","","",""
"","","","","","html-keyboard-response","89","276813","0.0-5.0-1.0-1.0-0.0-2.0-0.0-0.0-0.3","null","fixation","null","<p style='font-size: 48px; color: white'>+</p >","","","","","","","","","","","","","","","","","","","","","","","","","","","","","","","","","","","","","","","","","","","","","","","",""
"","","","","","rdk","90","279250","0.0-5.0-1.0-1.0-0.0-2.0-0.0-0.0-1.3","1795","color_test","d","","false","[""d"",""k""]","k","3000","true","1","100","0","0","0","3","1","-1","2","300","300","[""hsl(0, 50%, 50%)"",""hsl(225, 50%, 50%)""]","[""hsl(225, 50%, 50%)"",""hsl(0, 50%, 50%)""]","0.5","0.54","0","circle","black","3","2","2","16.76851851851852","[4,17,17,17,17,17,17,17,17,17,17,17,17,16,17,17,17,17,17,16,17,17,17,16,17,17,17,17,16,17,17,17,17,17,17,17,17,17,17,17,17,17,17,17,17,16,17,17,17,17,17,17,17,17,17,16,17,17,17,17,17,17,17,17,16,17,17,17,16,17,17,17,17,17,16,17,17,17,16,17,17,17,17,17,17,17,17,17,17,17,17,17,17,16,17,17,17,16,17,17,17,17,17,17,17,17,17,17]","108","960","484.5","false","20","20","black","1","false","1","1","1920","969","k","staircase_color","","","","",""
"","","","","","html-keyboard-response","91","280396","0.0-5.0-1.0-1.0-0.0-2.0-0.0-0.0-2.3","null","","null","<p style='font-size: 60px; color: red'>错误!</p>","","","","","","","","","","","","","","","","","","","","","","","","","","","","","","","","","","","","","","","","","","","","","","","",""
"","","","","","html-keyboard-response","92","281546","0.0-5.0-1.0-1.0-0.0-2.0-0.0-0.0-0.4","null","fixation","null","<p style='font-size: 48px; color: white'>+</p >","","","","","","","","","","","","","","","","","","","","","","","","","","","","","","","","","","","","","","","","","","","","","","","",""
"","","","","","rdk","93","283864","0.0-5.0-1.0-1.0-0.0-2.0-0.0-0.0-1.4","1677","color_test","k","","false","[""d"",""k""]","d","3000","true","1","100","0","0","0","3","1","-1","2","300","300","[""hsl(0, 50%, 50%)"",""hsl(225, 50%, 50%)""]","[""hsl(0, 50%, 50%)"",""hsl(225, 50%, 50%)""]","0.5","0.54","0","circle","black","3","2","2","16.673267326732674","[6,18,17,17,17,16,17,17,17,17,17,17,16,17,17,17,17,17,17,17,17,17,17,17,16,17,17,17,16,17,17,16,17,17,17,16,17,16,17,17,17,16,17,17,16,17,17,16,17,17,16,17,17,17,17,17,16,17,17,17,16,17,17,16,17,16,17,17,17,17,16,17,17,17,17,17,17,16,17,17,17,17,17,17,16,17,17,17,16,17,15,17,17,16,17,17,17,17,17,17,16]","101","960","484.5","false","20","20","black","1","false","1","1","1920","969","d","staircase_color","","","","",""
"","","","","","html-keyboard-response","94","285013","0.0-5.0-1.0-1.0-0.0-2.0-0.0-0.0-2.4","null","","null","<p style='font-size: 60px; color: red'>错误!</p>","","","","","","","","","","","","","","","","","","","","","","","","","","","","","","","","","","","","","","","","","","","","","","","",""
"","","","","","html-keyboard-response","95","286163","0.0-5.0-1.0-1.0-0.0-2.0-0.0-0.0-0.5","null","fixation","null","<p style='font-size: 48px; color: white'>+</p >","","","","","","","","","","","","","","","","","","","","","","","","","","","","","","","","","","","","","","","","","","","","","","","",""
"","","","","","rdk","96","288104","0.0-5.0-1.0-1.0-0.0-2.0-0.0-0.0-1.5","1299","color_test","k","","true","[""d"",""k""]","k","3000","true","1","100","0","0","0","3","1","-1","2","300","300","[""hsl(0, 50%, 50%)"",""hsl(225, 50%, 50%)""]","[""hsl(225, 50%, 50%)"",""hsl(0, 50%, 50%)""]","0.5","0.54","0","circle","black","3","2","2","16.794871794871796","[5,16,17,17,17,17,17,17,17,17,16,17,17,17,17,17,17,25,8,17,17,17,17,17,17,17,17,17,17,17,17,17,17,17,17,17,17,17,17,17,17,17,17,17,16,17,17,17,17,17,17,17,17,17,17,17,17,17,17,17,17,17,17,17,17,17,17,17,17,17,17,17,17,17,17,17,17,17]","78","960","484.5","false","20","20","black","1","false","1","1","1920","969","k","staircase_color","","","","",""
"","","","","","html-keyboard-response","97","289265","0.0-5.0-1.0-1.0-0.0-2.0-0.0-0.0-2.5","null","","null","<p style='font-size: 60px; color: green'>正确!</p>","","","","","","","","","","","","","","","","","","","","","","","","","","","","","","","","","","","","","","","","","","","","","","","",""
"","","","","","html-keyboard-response","98","290413","0.0-5.0-1.0-1.0-0.0-2.0-0.0-0.0-0.6","null","fixation","null","<p style='font-size: 48px; color: white'>+</p >","","","","","","","","","","","","","","","","","","","","","","","","","","","","","","","","","","","","","","","","","","","","","","","",""
"","","","","","rdk","99","292344","0.0-5.0-1.0-1.0-0.0-2.0-0.0-0.0-1.6","1289","color_test","k","","true","[""d"",""k""]","k","3000","true","1","100","0","0","0","3","1","-1","2","300","300","[""hsl(0, 50%, 50%)"",""hsl(225, 50%, 50%)""]","[""hsl(225, 50%, 50%)"",""hsl(0, 50%, 50%)""]","0.5","0.54","0","circle","black","3","2","2","16.714285714285715","[4,18,16,17,17,17,17,16,17,17,17,17,17,17,17,17,17,17,17,16,17,17,17,17,16,17,17,16,17,17,17,17,17,17,17,17,17,17,17,17,16,17,16,17,17,17,17,17,17,17,17,17,16,17,17,17,17,17,17,17,17,17,17,17,17,17,16,17,17,17,17,17,17,17,16,17,17]","77","960","484.5","false","20","20","black","1","false","1","1","1920","969","k","staircase_color","","","","",""
"","","","","","html-keyboard-response","100","293496","0.0-5.0-1.0-1.0-0.0-2.0-0.0-0.0-2.6","null","","null","<p style='font-size: 60px; color: green'>正确!</p>","","","","","","","","","","","","","","","","","","","","","","","","","","","","","","","","","","","","","","","","","","","","","","","",""
"","","","","","html-keyboard-response","101","294647","0.0-5.0-1.0-1.0-0.0-2.0-0.0-0.0-0.7","null","fixation","null","<p style='font-size: 48px; color: white'>+</p >","","","","","","","","","","","","","","","","","","","","","","","","","","","","","","","","","","","","","","","","","","","","","","","",""
"","","","","","rdk","102","297000","0.0-5.0-1.0-1.0-0.0-2.0-0.0-0.0-1.7","1712","color_test","k","","false","[""d"",""k""]","d","3000","true","1","100","0","0","0","3","1","-1","2","300","300","[""hsl(0, 50%, 50%)"",""hsl(225, 50%, 50%)""]","[""hsl(0, 50%, 50%)"",""hsl(225, 50%, 50%)""]","0.5","0.54","0","circle","black","3","2","2","16.718446601941746","[4,18,16,16,17,17,16,17,17,17,17,17,17,17,17,17,17,17,17,17,17,17,17,17,17,17,17,17,17,17,16,17,17,17,17,17,17,17,17,18,15,17,16,17,17,17,17,17,17,17,17,17,16,17,17,17,17,17,17,17,16,17,16,17,17,17,17,17,17,17,17,17,17,17,17,16,17,17,16,17,17,17,17,16,17,17,17,16,17,17,16,17,17,17,16,17,16,17,17,16,17,17,17]","103","960","484.5","false","20","20","black","1","false","1","1","1920","969","d","staircase_color","","","","",""
"","","","","","html-keyboard-response","103","298148","0.0-5.0-1.0-1.0-0.0-2.0-0.0-0.0-2.7","null","","null","<p style='font-size: 60px; color: red'>错误!</p>","","","","","","","","","","","","","","","","","","","","","","","","","","","","","","","","","","","","","","","","","","","","","","","",""
"","","","","","html-keyboard-response","104","299297","0.0-5.0-1.0-1.0-0.0-2.0-0.0-0.0-0.8","null","fixation","null","<p style='font-size: 48px; color: white'>+</p >","","","","","","","","","","","","","","","","","","","","","","","","","","","","","","","","","","","","","","","","","","","","","","","",""
"","","","","","rdk","105","301408","0.0-5.0-1.0-1.0-0.0-2.0-0.0-0.0-1.8","1468","color_test","k","","true","[""d"",""k""]","k","3000","true","1","100","0","0","0","3","1","-1","2","300","300","[""hsl(0, 50%, 50%)"",""hsl(225, 50%, 50%)""]","[""hsl(225, 50%, 50%)"",""hsl(0, 50%, 50%)""]","0.5","0.54","0","circle","black","3","2","2","16.78409090909091","[3,16,17,17,17,17,17,17,17,17,17,17,16,17,17,17,17,17,17,17,17,17,17,17,17,17,17,17,17,17,17,17,17,17,17,16,17,17,17,17,17,17,17,17,17,17,17,17,17,17,17,17,17,17,17,17,17,17,17,17,17,17,17,17,17,17,17,17,17,17,25,8,17,17,17,17,17,17,17,17,16,17,17,17,17,17,17,17]","88","960","484.5","false","20","20","black","1","false","1","1","1920","969","k","staircase_color","","","","",""
"","","","","","html-keyboard-response","106","302564","0.0-5.0-1.0-1.0-0.0-2.0-0.0-0.0-2.8","null","","null","<p style='font-size: 60px; color: green'>正确!</p>","","","","","","","","","","","","","","","","","","","","","","","","","","","","","","","","","","","","","","","","","","","","","","","",""
"","","","","","html-keyboard-response","107","303712","0.0-5.0-1.0-1.0-0.0-2.0-0.0-0.0-0.9","null","fixation","null","<p style='font-size: 48px; color: white'>+</p >","","","","","","","","","","","","","","","","","","","","","","","","","","","","","","","","","","","","","","","","","","","","","","","",""
"","","","","","rdk","108","305488","0.0-5.0-1.0-1.0-0.0-2.0-0.0-0.0-1.9","1134","color_test","k","","false","[""d"",""k""]","d","3000","true","1","100","0","0","0","3","1","-1","2","300","300","[""hsl(0, 50%, 50%)"",""hsl(225, 50%, 50%)""]","[""hsl(0, 50%, 50%)"",""hsl(225, 50%, 50%)""]","0.5","0.54","0","circle","black","3","2","2","16.83823529411765","[6,17,17,17,17,17,17,17,17,17,17,17,17,17,17,17,17,17,17,17,17,17,17,17,17,17,17,17,17,17,17,17,17,17,17,17,17,17,17,17,17,17,17,17,17,17,17,17,17,17,17,17,17,17,17,17,17,17,17,17,17,17,17,17,17,17,17,17]","68","960","484.5","false","20","20","black","1","false","1","1","1920","969","d","staircase_color","","","","",""
"","","","","","html-keyboard-response","109","306648","0.0-5.0-1.0-1.0-0.0-2.0-0.0-0.0-2.9","null","","null","<p style='font-size: 60px; color: red'>错误!</p>","","","","","","","","","","","","","","","","","","","","","","","","","","","","","","","","","","","","","","","","","","","","","","","",""
"","","","","","html-keyboard-response","110","307797","0.0-5.0-1.0-1.0-0.0-2.0-0.0-0.0-0.10","null","fixation","null","<p style='font-size: 48px; color: white'>+</p >","","","","","","","","","","","","","","","","","","","","","","","","","","","","","","","","","","","","","","","","","","","","","","","",""
"","","","","","rdk","111","309944","0.0-5.0-1.0-1.0-0.0-2.0-0.0-0.0-1.10","1506","color_test","d","","true","[""d"",""k""]","d","3000","true","1","100","0","0","0","3","1","-1","2","300","300","[""hsl(0, 50%, 50%)"",""hsl(225, 50%, 50%)""]","[""hsl(0, 50%, 50%)"",""hsl(225, 50%, 50%)""]","0.5","0.54","0","circle","black","3","2","2","16.72222222222222","[4,17,17,17,17,17,17,17,16,17,17,17,17,17,17,17,17,17,17,17,17,17,17,16,17,17,17,17,17,17,17,17,17,16,16,17,17,17,17,16,17,17,17,17,16,17,17,17,17,16,17,17,17,17,17,17,17,17,17,17,17,17,17,17,17,16,17,17,17,17,16,17,16,17,17,17,17,17,17,17,17,17,16,17,17,16,17,17,17,17]","90","960","484.5","false","20","20","black","1","false","1","1","1920","969","d","staircase_color","","","","",""
"","","","","","html-keyboard-response","112","311097","0.0-5.0-1.0-1.0-0.0-2.0-0.0-0.0-2.10","null","","null","<p style='font-size: 60px; color: green'>正确!</p>","","","","","","","","","","","","","","","","","","","","","","","","","","","","","","","","","","","","","","","","","","","","","","","",""
"","","","","","html-keyboard-response","113","312247","0.0-5.0-1.0-1.0-0.0-2.0-0.0-0.0-0.11","null","fixation","null","<p style='font-size: 48px; color: white'>+</p >","","","","","","","","","","","","","","","","","","","","","","","","","","","","","","","","","","","","","","","","","","","","","","","",""
"","","","","","rdk","114","313881","0.0-5.0-1.0-1.0-0.0-2.0-0.0-0.0-1.11","993","color_test","d","","false","[""d"",""k""]","k","3000","true","1","100","0","0","0","3","1","-1","2","300","300","[""hsl(0, 50%, 50%)"",""hsl(225, 50%, 50%)""]","[""hsl(225, 50%, 50%)"",""hsl(0, 50%, 50%)""]","0.5","0.54","0","circle","black","3","2","2","16.65","[4,18,17,16,17,17,17,16,17,17,17,17,17,17,17,17,17,17,17,16,17,17,16,17,17,17,16,17,16,17,17,17,17,17,17,17,17,17,17,17,17,17,17,17,17,16,17,17,17,17,16,17,17,17,17,16,17,17,17,17]","60","960","484.5","false","20","20","black","1","false","1","1","1920","969","k","staircase_color","","","","",""
"","","","","","html-keyboard-response","115","315030","0.0-5.0-1.0-1.0-0.0-2.0-0.0-0.0-2.11","null","","null","<p style='font-size: 60px; color: red'>错误!</p>","","","","","","","","","","","","","","","","","","","","","","","","","","","","","","","","","","","","","","","","","","","","","","","",""
"","","","","","html-keyboard-response","116","317680","0.0-5.0-1.0-1.0-0.0-2.0-0.0-1.0","null","","null","<p style='font-size: 35px; color: white'>您的正确率为： 42% 。平均反应时为：1287毫秒。</p>","","","","","","","","","","","","","","","","","","","","","","","","","","","","","","","","","","","","","","","","","","","","","","","",""
"","","","","","html-keyboard-response","117","318831","0.0-5.0-1.0-1.0-0.0-3.0-0.0-0.0-0.0","null","fixation","null","<p style='font-size: 48px; color: white'>+</p >","","","","","","","","","","","","","","","","","","","","","","","","","","","","","","","","","","","","","","","","","","","","","","","",""
"","","","","","rdk","118","320424","0.0-5.0-1.0-1.0-0.0-3.0-0.0-0.0-1.0","952","color_test","k","","true","[""d"",""k""]","k","3000","true","1","100","0","0","0","3","1","-1","2","300","300","[""hsl(0, 50%, 50%)"",""hsl(225, 50%, 50%)""]","[""hsl(225, 50%, 50%)"",""hsl(0, 50%, 50%)""]","0.5","0.52","0","circle","black","3","2","2","16.649122807017545","[7,13,17,17,17,17,17,17,17,17,17,17,17,17,17,17,17,17,16,17,17,17,17,17,17,17,17,17,17,17,17,17,17,16,17,16,17,17,17,17,17,17,17,17,17,17,17,17,16,16,16,17,17,17,17,17,17]","57","960","484.5","false","20","20","black","1","false","1","1","1920","969","k","staircase_color","","","","",""
"","","","","","html-keyboard-response","119","321580","0.0-5.0-1.0-1.0-0.0-3.0-0.0-0.0-2.0","null","","null","<p style='font-size: 60px; color: green'>正确!</p>","","","","","","","","","","","","","","","","","","","","","","","","","","","","","","","","","","","","","","","","","","","","","","","",""
"","","","","","html-keyboard-response","120","322731","0.0-5.0-1.0-1.0-0.0-3.0-0.0-0.0-0.1","null","fixation","null","<p style='font-size: 48px; color: white'>+</p >","","","","","","","","","","","","","","","","","","","","","","","","","","","","","","","","","","","","","","","","","","","","","","","",""
"","","","","","rdk","121","324088","0.0-5.0-1.0-1.0-0.0-3.0-0.0-0.0-1.1","716","color_test","k","","true","[""d"",""k""]","k","3000","true","1","100","0","0","0","3","1","-1","2","300","300","[""hsl(0, 50%, 50%)"",""hsl(225, 50%, 50%)""]","[""hsl(225, 50%, 50%)"",""hsl(0, 50%, 50%)""]","0.5","0.52","0","circle","black","3","2","2","16.58139534883721","[4,17,17,17,17,17,17,17,17,17,17,17,17,17,17,17,16,17,17,17,17,17,17,17,17,17,16,17,17,16,17,17,17,16,17,17,17,17,16,17,17,17,17]","43","960","484.5","false","20","20","black","1","false","1","1","1920","969","k","staircase_color","","","","",""
"","","","","","html-keyboard-response","122","325246","0.0-5.0-1.0-1.0-0.0-3.0-0.0-0.0-2.1","null","","null","<p style='font-size: 60px; color: green'>正确!</p>","","","","","","","","","","","","","","","","","","","","","","","","","","","","","","","","","","","","","","","","","","","","","","","",""
"","","","","","html-keyboard-response","123","326397","0.0-5.0-1.0-1.0-0.0-3.0-0.0-0.0-0.2","null","fixation","null","<p style='font-size: 48px; color: white'>+</p >","","","","","","","","","","","","","","","","","","","","","","","","","","","","","","","","","","","","","","","","","","","","","","","",""
"","","","","","rdk","124","328145","0.0-5.0-1.0-1.0-0.0-3.0-0.0-0.0-1.2","1106","color_test","k","","false","[""d"",""k""]","d","3000","true","1","100","0","0","0","3","1","-1","2","300","300","[""hsl(0, 50%, 50%)"",""hsl(225, 50%, 50%)""]","[""hsl(0, 50%, 50%)"",""hsl(225, 50%, 50%)""]","0.5","0.52","0","circle","black","3","2","2","16.727272727272727","[5,18,17,17,17,16,17,17,17,17,17,16,17,17,17,17,17,17,17,17,17,17,17,17,17,17,17,16,17,17,17,17,17,17,17,17,16,17,17,17,17,17,17,17,16,17,17,17,17,17,17,15,17,17,17,18,16,17,17,17,17,17,17,17,17,17]","66","960","484.5","false","20","20","black","1","false","1","1","1920","969","d","staircase_color","","","","",""
"","","","","","html-keyboard-response","125","329296","0.0-5.0-1.0-1.0-0.0-3.0-0.0-0.0-2.2","null","","null","<p style='font-size: 60px; color: red'>错误!</p>","","","","","","","","","","","","","","","","","","","","","","","","","","","","","","","","","","","","","","","","","","","","","","","",""
"","","","","","html-keyboard-response","126","330446","0.0-5.0-1.0-1.0-0.0-3.0-0.0-0.0-0.3","null","fixation","null","<p style='font-size: 48px; color: white'>+</p >","","","","","","","","","","","","","","","","","","","","","","","","","","","","","","","","","","","","","","","","","","","","","","","",""
"","","","","","rdk","127","332199","0.0-5.0-1.0-1.0-0.0-3.0-0.0-0.0-1.3","1111","color_test","d","","true","[""d"",""k""]","d","3000","true","1","100","0","0","0","3","1","-1","2","300","300","[""hsl(0, 50%, 50%)"",""hsl(225, 50%, 50%)""]","[""hsl(0, 50%, 50%)"",""hsl(225, 50%, 50%)""]","0.5","0.52","0","circle","black","3","2","2","16.65671641791045","[4,18,17,16,16,17,17,17,17,17,17,16,17,17,17,17,17,17,17,17,17,17,17,17,17,17,17,17,17,17,17,17,17,17,16,17,17,17,17,16,17,17,17,17,16,17,17,16,17,17,16,17,17,17,17,16,17,17,17,17,17,15,17,17,17,17,17]","67","960","484.5","false","20","20","black","1","false","1","1","1920","969","d","staircase_color","","","","",""
"","","","","","html-keyboard-response","128","333347","0.0-5.0-1.0-1.0-0.0-3.0-0.0-0.0-2.3","null","","null","<p style='font-size: 60px; color: green'>正确!</p>","","","","","","","","","","","","","","","","","","","","","","","","","","","","","","","","","","","","","","","","","","","","","","","",""
"","","","","","html-keyboard-response","129","334497","0.0-5.0-1.0-1.0-0.0-3.0-0.0-0.0-0.4","null","fixation","null","<p style='font-size: 48px; color: white'>+</p >","","","","","","","","","","","","","","","","","","","","","","","","","","","","","","","","","","","","","","","","","","","","","","","",""
"","","","","","rdk","130","336331","0.0-5.0-1.0-1.0-0.0-3.0-0.0-0.0-1.4","1192","color_test","k","","true","[""d"",""k""]","k","3000","true","1","100","0","0","0","3","1","-1","2","300","300","[""hsl(0, 50%, 50%)"",""hsl(225, 50%, 50%)""]","[""hsl(225, 50%, 50%)"",""hsl(0, 50%, 50%)""]","0.5","0.52","0","circle","black","3","2","2","16.680555555555557","[4,17,17,17,17,17,17,17,17,17,16,17,17,17,17,17,16,17,17,17,17,17,17,17,17,17,17,16,17,17,16,17,17,17,17,17,17,17,17,16,17,17,17,17,16,16,17,16,17,17,17,17,17,17,17,16,17,17,17,17,17,17,17,17,16,17,17,17,17,17,17,17]","72","960","484.5","false","20","20","black","1","false","1","1","1920","969","k","staircase_color","","","","",""
"","","","","","html-keyboard-response","131","337480","0.0-5.0-1.0-1.0-0.0-3.0-0.0-0.0-2.4","null","","null","<p style='font-size: 60px; color: green'>正确!</p>","","","","","","","","","","","","","","","","","","","","","","","","","","","","","","","","","","","","","","","","","","","","","","","",""
"","","","","","html-keyboard-response","132","338629","0.0-5.0-1.0-1.0-0.0-3.0-0.0-0.0-0.5","null","fixation","null","<p style='font-size: 48px; color: white'>+</p >","","","","","","","","","","","","","","","","","","","","","","","","","","","","","","","","","","","","","","","","","","","","","","","",""
"","","","","","rdk","133","340345","0.0-5.0-1.0-1.0-0.0-3.0-0.0-0.0-1.5","1071","color_test","d","","true","[""d"",""k""]","d","3000","true","1","100","0","0","0","3","1","-1","2","300","300","[""hsl(0, 50%, 50%)"",""hsl(225, 50%, 50%)""]","[""hsl(0, 50%, 50%)"",""hsl(225, 50%, 50%)""]","0.5","0.52","0","circle","black","3","2","2","16.75","[3,17,16,17,17,17,17,17,17,17,17,17,17,17,17,17,17,17,17,17,17,17,17,17,17,17,17,17,17,17,17,17,17,17,17,17,17,17,17,17,17,17,17,17,16,17,17,17,17,17,17,17,17,17,17,17,17,17,17,17,17,17,17,17]","64","960","484.5","false","20","20","black","1","false","1","1","1920","969","d","staircase_color","","","","",""
"","","","","","html-keyboard-response","134","341496","0.0-5.0-1.0-1.0-0.0-3.0-0.0-0.0-2.5","null","","null","<p style='font-size: 60px; color: green'>正确!</p>","","","","","","","","","","","","","","","","","","","","","","","","","","","","","","","","","","","","","","","","","","","","","","","",""
"","","","","","html-keyboard-response","135","342647","0.0-5.0-1.0-1.0-0.0-3.0-0.0-0.0-0.6","null","fixation","null","<p style='font-size: 48px; color: white'>+</p >","","","","","","","","","","","","","","","","","","","","","","","","","","","","","","","","","","","","","","","","","","","","","","","",""
"","","","","","rdk","136","344440","0.0-5.0-1.0-1.0-0.0-3.0-0.0-0.0-1.6","1151","color_test","d","","true","[""d"",""k""]","d","3000","true","1","100","0","0","0","3","1","-1","2","300","300","[""hsl(0, 50%, 50%)"",""hsl(225, 50%, 50%)""]","[""hsl(0, 50%, 50%)"",""hsl(225, 50%, 50%)""]","0.5","0.52","0","circle","black","3","2","2","16.695652173913043","[7,13,17,17,16,17,17,17,17,17,17,17,17,17,17,17,17,17,17,17,17,17,17,17,17,17,17,17,17,16,17,17,17,17,17,17,17,17,17,17,17,17,17,17,16,16,17,16,17,17,17,17,17,16,17,17,17,17,17,17,16,17,17,17,17,17,17,17,17]","69","960","484.5","false","20","20","black","1","false","1","1","1920","969","d","staircase_color","","","","",""
"","","","","","html-keyboard-response","137","345598","0.0-5.0-1.0-1.0-0.0-3.0-0.0-0.0-2.6","null","","null","<p style='font-size: 60px; color: green'>正确!</p>","","","","","","","","","","","","","","","","","","","","","","","","","","","","","","","","","","","","","","","","","","","","","","","",""
"","","","","","html-keyboard-response","138","346747","0.0-5.0-1.0-1.0-0.0-3.0-0.0-0.0-0.7","null","fixation","null","<p style='font-size: 48px; color: white'>+</p >","","","","","","","","","","","","","","","","","","","","","","","","","","","","","","","","","","","","","","","","","","","","","","","",""
"","","","","","rdk","139","348536","0.0-5.0-1.0-1.0-0.0-3.0-0.0-0.0-1.7","1146","color_test","k","","true","[""d"",""k""]","k","3000","true","1","100","0","0","0","3","1","-1","2","300","300","[""hsl(0, 50%, 50%)"",""hsl(225, 50%, 50%)""]","[""hsl(225, 50%, 50%)"",""hsl(0, 50%, 50%)""]","0.5","0.52","0","circle","black","3","2","2","16.768115942028984","[6,14,17,17,17,17,17,17,17,17,17,17,17,17,17,17,17,17,17,17,17,17,17,17,17,17,17,17,17,17,17,17,17,17,17,17,17,17,17,17,17,17,17,17,16,17,16,17,17,17,17,17,17,17,17,17,17,17,17,17,17,17,17,17,17,17,17,17,17]","69","960","484.5","false","20","20","black","1","false","1","1","1920","969","k","staircase_color","","","","",""
"","","","","","html-keyboard-response","140","349680","0.0-5.0-1.0-1.0-0.0-3.0-0.0-0.0-2.7","null","","null","<p style='font-size: 60px; color: green'>正确!</p>","","","","","","","","","","","","","","","","","","","","","","","","","","","","","","","","","","","","","","","","","","","","","","","",""
"","","","","","html-keyboard-response","141","350831","0.0-5.0-1.0-1.0-0.0-3.0-0.0-0.0-0.8","null","fixation","null","<p style='font-size: 48px; color: white'>+</p >","","","","","","","","","","","","","","","","","","","","","","","","","","","","","","","","","","","","","","","","","","","","","","","",""
"","","","","","rdk","142","352315","0.0-5.0-1.0-1.0-0.0-3.0-0.0-0.0-1.8","843","color_test","d","","true","[""d"",""k""]","d","3000","true","1","100","0","0","0","3","1","-1","2","300","300","[""hsl(0, 50%, 50%)"",""hsl(225, 50%, 50%)""]","[""hsl(0, 50%, 50%)"",""hsl(225, 50%, 50%)""]","0.5","0.52","0","circle","black","3","2","2","16.58823529411765","[4,17,17,17,17,17,17,17,17,17,16,17,17,17,17,17,17,17,17,16,17,17,17,16,17,17,17,16,17,17,17,17,16,17,17,16,17,17,17,16,17,17,17,17,16,17,17,17,16,17,18]","51","960","484.5","false","20","20","black","1","false","1","1","1920","969","d","staircase_color","","","","",""
"","","","","","html-keyboard-response","143","353465","0.0-5.0-1.0-1.0-0.0-3.0-0.0-0.0-2.8","null","","null","<p style='font-size: 60px; color: green'>正确!</p>","","","","","","","","","","","","","","","","","","","","","","","","","","","","","","","","","","","","","","","","","","","","","","","",""
"","","","","","html-keyboard-response","144","354614","0.0-5.0-1.0-1.0-0.0-3.0-0.0-0.0-0.9","null","fixation","null","<p style='font-size: 48px; color: white'>+</p >","","","","","","","","","","","","","","","","","","","","","","","","","","","","","","","","","","","","","","","","","","","","","","","",""
"","","","","","rdk","145","356991","0.0-5.0-1.0-1.0-0.0-3.0-0.0-0.0-1.9","1735","color_test","d","","false","[""d"",""k""]","k","3000","true","1","100","0","0","0","3","1","-1","2","300","300","[""hsl(0, 50%, 50%)"",""hsl(225, 50%, 50%)""]","[""hsl(225, 50%, 50%)"",""hsl(0, 50%, 50%)""]","0.5","0.52","0","circle","black","3","2","2","16.805825242718445","[19,15,17,17,16,17,18,15,17,17,16,18,16,17,16,17,17,18,15,17,18,16,17,17,16,17,16,17,17,17,17,17,18,16,18,16,17,17,17,17,17,16,17,17,16,17,17,17,17,17,17,17,17,17,17,16,17,17,17,17,16,16,18,15,17,17,16,17,17,17,16,18,16,17,17,17,17,17,17,16,17,16,17,17,17,17,17,17,17,17,17,17,17,16,17,16,17,17,17,17,17,17,16]","103","960","484.5","false","20","20","black","1","false","1","1","1920","969","k","staircase_color","","","","",""
"","","","","","html-keyboard-response","146","358148","0.0-5.0-1.0-1.0-0.0-3.0-0.0-0.0-2.9","null","","null","<p style='font-size: 60px; color: red'>错误!</p>","","","","","","","","","","","","","","","","","","","","","","","","","","","","","","","","","","","","","","","","","","","","","","","",""
"","","","","","html-keyboard-response","147","359297","0.0-5.0-1.0-1.0-0.0-3.0-0.0-0.0-0.10","null","fixation","null","<p style='font-size: 48px; color: white'>+</p >","","","","","","","","","","","","","","","","","","","","","","","","","","","","","","","","","","","","","","","","","","","","","","","",""
"","","","","","rdk","148","361320","0.0-5.0-1.0-1.0-0.0-3.0-0.0-0.0-1.10","1380","color_test","d","","true","[""d"",""k""]","d","3000","true","1","100","0","0","0","3","1","-1","2","300","300","[""hsl(0, 50%, 50%)"",""hsl(225, 50%, 50%)""]","[""hsl(0, 50%, 50%)"",""hsl(225, 50%, 50%)""]","0.5","0.52","0","circle","black","3","2","2","16.771084337349397","[3,16,17,17,17,17,17,17,17,17,17,17,17,17,17,17,17,17,17,17,17,17,17,17,17,17,17,17,17,17,17,17,17,17,17,15,17,17,17,17,17,17,17,17,17,17,17,17,17,17,17,17,16,17,17,17,17,17,17,17,17,17,17,17,17,17,17,17,17,17,17,17,17,16,17,17,17,17,17,18,16,17,17]","83","960","484.5","false","20","20","black","1","false","1","1","1920","969","d","staircase_color","","","","",""
"","","","","","html-keyboard-response","149","362464","0.0-5.0-1.0-1.0-0.0-3.0-0.0-0.0-2.10","null","","null","<p style='font-size: 60px; color: green'>正确!</p>","","","","","","","","","","","","","","","","","","","","","","","","","","","","","","","","","","","","","","","","","","","","","","","",""
"","","","","","html-keyboard-response","150","363612","0.0-5.0-1.0-1.0-0.0-3.0-0.0-0.0-0.11","null","fixation","null","<p style='font-size: 48px; color: white'>+</p >","","","","","","","","","","","","","","","","","","","","","","","","","","","","","","","","","","","","","","","","","","","","","","","",""
"","","","","","rdk","151","365217","0.0-5.0-1.0-1.0-0.0-3.0-0.0-0.0-1.11","962","color_test","d","","false","[""d"",""k""]","k","3000","true","1","100","0","0","0","3","1","-1","2","300","300","[""hsl(0, 50%, 50%)"",""hsl(225, 50%, 50%)""]","[""hsl(225, 50%, 50%)"",""hsl(0, 50%, 50%)""]","0.5","0.52","0","circle","black","3","2","2","16.67241379310345","[3,16,17,17,17,17,17,17,17,17,16,17,17,17,17,17,16,17,17,17,17,17,17,17,17,17,17,17,17,17,17,17,17,17,17,17,16,17,17,17,17,17,17,17,16,17,17,17,17,17,17,17,17,17,17,17,17,17]","58","960","484.5","false","20","20","black","1","false","1","1","1920","969","k","staircase_color","","","","",""
"","","","","","html-keyboard-response","152","366364","0.0-5.0-1.0-1.0-0.0-3.0-0.0-0.0-2.11","null","","null","<p style='font-size: 60px; color: red'>错误!</p>","","","","","","","","","","","","","","","","","","","","","","","","","","","","","","","","","","","","","","","","","","","","","","","",""
"","","","","","html-keyboard-response","153","369014","0.0-5.0-1.0-1.0-0.0-3.0-0.0-1.0","null","","null","<p style='font-size: 35px; color: white'>您的正确率为： 75% 。平均反应时为：1114毫秒。</p>","","","","","","","","","","","","","","","","","","","","","","","","","","","","","","","","","","","","","","","","","","","","","","","",""
"","","","","","html-keyboard-response","154","370162","0.0-5.0-1.0-1.0-0.0-4.0-0.0-0.0-0.0","null","fixation","null","<p style='font-size: 48px; color: white'>+</p >","","","","","","","","","","","","","","","","","","","","","","","","","","","","","","","","","","","","","","","","","","","","","","","",""
"","","","","","rdk","155","372804","0.0-5.0-1.0-1.0-0.0-4.0-0.0-0.0-1.0","2000","color_test","d","","true","[""d"",""k""]","d","3000","true","1","100","0","0","0","3","1","-1","2","300","300","[""hsl(0, 50%, 50%)"",""hsl(225, 50%, 50%)""]","[""hsl(0, 50%, 50%)"",""hsl(225, 50%, 50%)""]","0.5","0.51","0","circle","black","3","2","2","16.833333333333332","[4,17,17,17,17,17,17,17,17,17,17,17,17,17,17,17,17,17,17,17,17,17,17,16,17,17,17,17,16,17,17,16,17,17,17,17,17,17,17,16,17,17,16,17,17,17,17,17,17,17,17,17,17,17,17,16,17,17,17,17,17,17,17,16,17,17,17,17,17,17,17,17,17,17,16,17,17,17,17,16,17,17,17,17,17,17,17,16,17,17,16,17,16,17,17,17,17,17,17,16,17,17,17,17,17,17,17,16,17,17,17,17,17,17,17,17,16,17,17,25]","120","960","484.5","false","20","20","black","1","false","1","1","1920","969","d","staircase_color","","","","",""
"","","","","","html-keyboard-response","156","373965","0.0-5.0-1.0-1.0-0.0-4.0-0.0-0.0-2.0","null","","null","<p style='font-size: 60px; color: green'>正确!</p>","","","","","","","","","","","","","","","","","","","","","","","","","","","","","","","","","","","","","","","","","","","","","","","",""
"","","","","","html-keyboard-response","157","375113","0.0-5.0-1.0-1.0-0.0-4.0-0.0-0.0-0.1","null","fixation","null","<p style='font-size: 48px; color: white'>+</p >","","","","","","","","","","","","","","","","","","","","","","","","","","","","","","","","","","","","","","","","","","","","","","","",""
"","","","","","rdk","158","377472","0.0-5.0-1.0-1.0-0.0-4.0-0.0-0.0-1.1","1717","color_test","d","","true","[""d"",""k""]","d","3000","true","1","100","0","0","0","3","1","-1","2","300","300","[""hsl(0, 50%, 50%)"",""hsl(225, 50%, 50%)""]","[""hsl(0, 50%, 50%)"",""hsl(225, 50%, 50%)""]","0.5","0.51","0","circle","black","3","2","2","16.737864077669904","[4,17,17,17,17,17,17,17,17,17,17,17,17,16,17,17,17,17,17,17,17,17,17,16,17,17,16,17,16,17,17,17,17,16,17,17,17,17,17,17,17,17,17,17,16,17,17,17,16,17,17,17,17,17,16,17,17,17,17,16,16,17,16,17,17,17,17,17,17,17,17,17,17,17,17,17,17,17,17,17,17,17,17,17,16,17,17,17,16,17,17,17,17,17,17,17,17,16,17,17,17,17,17]","103","960","484.5","false","20","20","black","1","false","1","1","1920","969","d","staircase_color","","","","",""
"","","","","","html-keyboard-response","159","378629","0.0-5.0-1.0-1.0-0.0-4.0-0.0-0.0-2.1","null","","null","<p style='font-size: 60px; color: green'>正确!</p>","","","","","","","","","","","","","","","","","","","","","","","","","","","","","","","","","","","","","","","","","","","","","","","",""
"","","","","","html-keyboard-response","160","379780","0.0-5.0-1.0-1.0-0.0-4.0-0.0-0.0-0.2","null","fixation","null","<p style='font-size: 48px; color: white'>+</p >","","","","","","","","","","","","","","","","","","","","","","","","","","","","","","","","","","","","","","","","","","","","","","","",""
"","","","","","rdk","161","381488","0.0-5.0-1.0-1.0-0.0-4.0-0.0-0.0-1.2","1066","color_test","d","","false","[""d"",""k""]","k","3000","true","1","100","0","0","0","3","1","-1","2","300","300","[""hsl(0, 50%, 50%)"",""hsl(225, 50%, 50%)""]","[""hsl(225, 50%, 50%)"",""hsl(0, 50%, 50%)""]","0.5","0.51","0","circle","black","3","2","2","16.703125","[4,18,16,17,17,17,16,17,17,17,17,17,17,18,17,17,17,17,17,17,17,17,17,17,17,17,17,16,17,17,17,17,16,17,17,16,17,16,17,17,17,17,17,17,17,17,17,17,17,17,17,17,17,17,16,17,17,17,16,17,17,17,17,17]","64","960","484.5","false","20","20","black","1","false","1","1","1920","969","k","staircase_color","","","","",""
"","","","","","html-keyboard-response","162","382647","0.0-5.0-1.0-1.0-0.0-4.0-0.0-0.0-2.2","null","","null","<p style='font-size: 60px; color: red'>错误!</p>","","","","","","","","","","","","","","","","","","","","","","","","","","","","","","","","","","","","","","","","","","","","","","","",""
"","","","","","html-keyboard-response","163","383796","0.0-5.0-1.0-1.0-0.0-4.0-0.0-0.0-0.3","null","fixation","null","<p style='font-size: 48px; color: white'>+</p >","","","","","","","","","","","","","","","","","","","","","","","","","","","","","","","","","","","","","","","","","","","","","","","",""
"","","","","","rdk","164","386080","0.0-5.0-1.0-1.0-0.0-4.0-0.0-0.0-1.3","1640","color_test","d","","false","[""d"",""k""]","k","3000","true","1","100","0","0","0","3","1","-1","2","300","300","[""hsl(0, 50%, 50%)"",""hsl(225, 50%, 50%)""]","[""hsl(225, 50%, 50%)"",""hsl(0, 50%, 50%)""]","0.5","0.51","0","circle","black","3","2","2","16.80808080808081","[3,16,17,17,17,17,17,17,17,17,17,17,17,17,17,17,17,17,17,17,17,17,17,17,17,17,17,17,17,17,17,17,17,17,17,17,17,17,17,17,17,17,17,17,16,17,17,17,17,17,17,17,17,16,16,17,17,17,17,17,17,17,17,17,17,17,17,17,17,17,17,17,17,17,17,17,17,17,17,17,17,17,17,17,17,17,17,17,17,17,16,17,17,17,17,17,17,17,17]","99","960","484.5","false","20","20","black","1","false","1","1","1920","969","k","staircase_color","","","","",""
"","","","","","html-keyboard-response","165","387231","0.0-5.0-1.0-1.0-0.0-4.0-0.0-0.0-2.3","null","","null","<p style='font-size: 60px; color: red'>错误!</p>","","","","","","","","","","","","","","","","","","","","","","","","","","","","","","","","","","","","","","","","","","","","","","","",""
"","","","","","html-keyboard-response","166","388379","0.0-5.0-1.0-1.0-0.0-4.0-0.0-0.0-0.4","null","fixation","null","<p style='font-size: 48px; color: white'>+</p >","","","","","","","","","","","","","","","","","","","","","","","","","","","","","","","","","","","","","","","","","","","","","","","",""
"","","","","","rdk","167","390304","0.0-5.0-1.0-1.0-0.0-4.0-0.0-0.0-1.4","1282","color_test","k","","false","[""d"",""k""]","d","3000","true","1","100","0","0","0","3","1","-1","2","300","300","[""hsl(0, 50%, 50%)"",""hsl(225, 50%, 50%)""]","[""hsl(0, 50%, 50%)"",""hsl(225, 50%, 50%)""]","0.5","0.51","0","circle","black","3","2","2","16.662337662337663","[4,17,17,17,17,17,17,17,17,17,17,16,17,17,16,17,17,17,17,17,17,17,17,17,17,17,17,17,17,16,17,17,16,17,16,17,17,17,17,16,17,17,17,17,16,17,17,17,25,7,17,17,17,17,17,17,17,17,17,17,17,16,17,16,17,16,17,17,17,17,17,17,17,17,17,17,16]","77","960","484.5","false","20","20","black","1","false","1","1","1920","969","d","staircase_color","","","","",""
"","","","","","html-keyboard-response","168","391447","0.0-5.0-1.0-1.0-0.0-4.0-0.0-0.0-2.4","null","","null","<p style='font-size: 60px; color: red'>错误!</p>","","","","","","","","","","","","","","","","","","","","","","","","","","","","","","","","","","","","","","","","","","","","","","","",""
"","","","","","html-keyboard-response","169","392597","0.0-5.0-1.0-1.0-0.0-4.0-0.0-0.0-0.5","null","fixation","null","<p style='font-size: 48px; color: white'>+</p >","","","","","","","","","","","","","","","","","","","","","","","","","","","","","","","","","","","","","","","","","","","","","","","",""
"","","","","","rdk","170","394568","0.0-5.0-1.0-1.0-0.0-4.0-0.0-0.0-1.5","1329","color_test","k","","true","[""d"",""k""]","k","3000","true","1","100","0","0","0","3","1","-1","2","300","300","[""hsl(0, 50%, 50%)"",""hsl(225, 50%, 50%)""]","[""hsl(225, 50%, 50%)"",""hsl(0, 50%, 50%)""]","0.5","0.51","0","circle","black","3","2","2","16.65","[5,16,17,17,16,17,17,17,17,17,17,16,17,17,17,17,17,17,17,17,16,17,17,17,16,17,17,17,17,17,16,17,17,17,17,17,17,17,17,17,16,17,17,17,16,17,17,16,17,17,17,17,17,17,17,17,16,17,16,17,16,17,17,16,17,17,17,17,17,17,17,16,17,17,16,17,17,17,16,17]","80","960","484.5","false","20","20","black","1","false","1","1","1920","969","k","staircase_color","","","","",""
"","","","","","html-keyboard-response","171","395714","0.0-5.0-1.0-1.0-0.0-4.0-0.0-0.0-2.5","null","","null","<p style='font-size: 60px; color: green'>正确!</p>","","","","","","","","","","","","","","","","","","","","","","","","","","","","","","","","","","","","","","","","","","","","","","","",""
"","","","","","html-keyboard-response","172","396864","0.0-5.0-1.0-1.0-0.0-4.0-0.0-0.0-0.6","null","fixation","null","<p style='font-size: 48px; color: white'>+</p >","","","","","","","","","","","","","","","","","","","","","","","","","","","","","","","","","","","","","","","","","","","","","","","",""
"","","","","","rdk","173","398976","0.0-5.0-1.0-1.0-0.0-4.0-0.0-0.0-1.6","1469","color_test","k","","true","[""d"",""k""]","k","3000","true","1","100","0","0","0","3","1","-1","2","300","300","[""hsl(0, 50%, 50%)"",""hsl(225, 50%, 50%)""]","[""hsl(225, 50%, 50%)"",""hsl(0, 50%, 50%)""]","0.5","0.51","0","circle","black","3","2","2","16.602272727272727","[2,17,17,17,17,17,17,16,17,16,17,17,17,17,17,17,17,16,17,17,17,17,17,17,17,16,17,16,17,17,17,17,17,17,17,17,16,17,17,17,17,16,16,17,16,16,24,8,17,17,17,16,17,17,16,17,17,17,17,16,17,17,17,16,17,17,17,17,17,17,17,17,17,16,17,17,17,16,17,17,17,17,17,17,16,17,17,16]","88","960","484.5","false","20","20","black","1","false","1","1","1920","969","k","staircase_color","","","","",""
"","","","","","html-keyboard-response","174","400130","0.0-5.0-1.0-1.0-0.0-4.0-0.0-0.0-2.6","null","","null","<p style='font-size: 60px; color: green'>正确!</p>","","","","","","","","","","","","","","","","","","","","","","","","","","","","","","","","","","","","","","","","","","","","","","","",""
"","","","","","html-keyboard-response","175","401279","0.0-5.0-1.0-1.0-0.0-4.0-0.0-0.0-0.7","null","fixation","null","<p style='font-size: 48px; color: white'>+</p >","","","","","","","","","","","","","","","","","","","","","","","","","","","","","","","","","","","","","","","","","","","","","","","",""
"","","","","","rdk","176","403136","0.0-5.0-1.0-1.0-0.0-4.0-0.0-0.0-1.7","1214","color_test","d","","true","[""d"",""k""]","d","3000","true","1","100","0","0","0","3","1","-1","2","300","300","[""hsl(0, 50%, 50%)"",""hsl(225, 50%, 50%)""]","[""hsl(0, 50%, 50%)"",""hsl(225, 50%, 50%)""]","0.5","0.51","0","circle","black","3","2","2","16.794520547945204","[5,16,17,17,17,17,17,17,17,17,17,17,16,17,17,17,17,17,17,17,17,17,17,17,17,17,17,17,17,17,17,17,17,17,17,17,17,17,17,17,17,16,17,17,17,17,17,17,17,17,17,17,17,17,17,17,17,17,17,17,17,17,17,17,17,17,17,17,17,17,17,17,17]","73","960","484.5","false","20","20","black","1","false","1","1","1920","969","d","staircase_color","","","","",""
"","","","","","html-keyboard-response","177","404281","0.0-5.0-1.0-1.0-0.0-4.0-0.0-0.0-2.7","null","","null","<p style='font-size: 60px; color: green'>正确!</p>","","","","","","","","","","","","","","","","","","","","","","","","","","","","","","","","","","","","","","","","","","","","","","","",""
"","","","","","html-keyboard-response","178","405430","0.0-5.0-1.0-1.0-0.0-4.0-0.0-0.0-0.8","null","fixation","null","<p style='font-size: 48px; color: white'>+</p >","","","","","","","","","","","","","","","","","","","","","","","","","","","","","","","","","","","","","","","","","","","","","","","",""
"","","","","","rdk","179","407945","0.0-5.0-1.0-1.0-0.0-4.0-0.0-0.0-1.8","1872","color_test","k","","true","[""d"",""k""]","k","3000","true","1","100","0","0","0","3","1","-1","2","300","300","[""hsl(0, 50%, 50%)"",""hsl(225, 50%, 50%)""]","[""hsl(225, 50%, 50%)"",""hsl(0, 50%, 50%)""]","0.5","0.51","0","circle","black","3","2","2","16.696428571428573","[4,18,16,17,17,17,18,16,17,17,17,17,17,16,17,17,16,17,16,17,17,17,17,16,17,17,16,17,17,17,16,16,17,17,16,17,17,17,17,17,17,16,17,17,17,17,17,17,16,17,17,16,17,17,17,17,17,16,17,17,16,17,17,17,16,17,17,17,17,17,16,17,17,17,17,17,17,17,16,17,17,17,16,17,17,16,17,16,17,17,17,17,17,17,16,17,17,17,17,17,17,17,17,17,17,17,16,17,17,17,17,17]","112","960","484.5","false","20","20","black","1","false","1","1","1920","969","k","staircase_color","","","","",""
"","","","","","html-keyboard-response","180","409095","0.0-5.0-1.0-1.0-0.0-4.0-0.0-0.0-2.8","null","","null","<p style='font-size: 60px; color: green'>正确!</p>","","","","","","","","","","","","","","","","","","","","","","","","","","","","","","","","","","","","","","","","","","","","","","","",""
"","","","","","html-keyboard-response","181","410247","0.0-5.0-1.0-1.0-0.0-4.0-0.0-0.0-0.9","null","fixation","null","<p style='font-size: 48px; color: white'>+</p >","","","","","","","","","","","","","","","","","","","","","","","","","","","","","","","","","","","","","","","","","","","","","","","",""
"","","","","","rdk","182","411961","0.0-5.0-1.0-1.0-0.0-4.0-0.0-0.0-1.9","1070","color_test","d","","false","[""d"",""k""]","k","3000","true","1","100","0","0","0","3","1","-1","2","300","300","[""hsl(0, 50%, 50%)"",""hsl(225, 50%, 50%)""]","[""hsl(225, 50%, 50%)"",""hsl(0, 50%, 50%)""]","0.5","0.51","0","circle","black","3","2","2","16.71875","[3,16,17,17,17,17,17,17,17,17,17,17,17,17,17,17,17,17,17,17,17,17,17,17,17,17,17,17,17,17,17,17,17,17,17,17,17,17,16,17,17,17,17,17,16,17,17,17,17,17,17,17,17,16,17,17,17,17,17,17,17,17,17,17]","64","960","484.5","false","20","20","black","1","false","1","1","1920","969","k","staircase_color","","","","",""
"","","","","","html-keyboard-response","183","413115","0.0-5.0-1.0-1.0-0.0-4.0-0.0-0.0-2.9","null","","null","<p style='font-size: 60px; color: red'>错误!</p>","","","","","","","","","","","","","","","","","","","","","","","","","","","","","","","","","","","","","","","","","","","","","","","",""
"","","","","","html-keyboard-response","184","414264","0.0-5.0-1.0-1.0-0.0-4.0-0.0-0.0-0.10","null","fixation","null","<p style='font-size: 48px; color: white'>+</p >","","","","","","","","","","","","","","","","","","","","","","","","","","","","","","","","","","","","","","","","","","","","","","","",""
"","","","","","rdk","185","416408","0.0-5.0-1.0-1.0-0.0-4.0-0.0-0.0-1.10","1501","color_test","k","","false","[""d"",""k""]","d","3000","true","1","100","0","0","0","3","1","-1","2","300","300","[""hsl(0, 50%, 50%)"",""hsl(225, 50%, 50%)""]","[""hsl(0, 50%, 50%)"",""hsl(225, 50%, 50%)""]","0.5","0.51","0","circle","black","3","2","2","16.77777777777778","[3,16,17,17,17,17,17,17,17,17,17,17,17,17,17,17,17,16,17,17,17,17,17,17,17,17,16,17,17,17,16,17,17,17,17,17,17,17,17,17,17,17,17,17,17,17,17,17,17,17,17,17,17,17,17,17,17,17,17,17,17,17,17,17,16,17,17,17,17,17,17,17,17,17,17,17,17,17,17,17,17,17,17,17,17,17,17,16,17,17]","90","960","484.5","false","20","20","black","1","false","1","1","1920","969","d","staircase_color","","","","",""
"","","","","","html-keyboard-response","186","417565","0.0-5.0-1.0-1.0-0.0-4.0-0.0-0.0-2.10","null","","null","<p style='font-size: 60px; color: red'>错误!</p>","","","","","","","","","","","","","","","","","","","","","","","","","","","","","","","","","","","","","","","","","","","","","","","",""
"","","","","","html-keyboard-response","187","418713","0.0-5.0-1.0-1.0-0.0-4.0-0.0-0.0-0.11","null","fixation","null","<p style='font-size: 48px; color: white'>+</p >","","","","","","","","","","","","","","","","","","","","","","","","","","","","","","","","","","","","","","","","","","","","","","","",""
"","","","","","rdk","188","421008","0.0-5.0-1.0-1.0-0.0-4.0-0.0-0.0-1.11","1652","color_test","k","","false","[""d"",""k""]","d","3000","true","1","100","0","0","0","3","1","-1","2","300","300","[""hsl(0, 50%, 50%)"",""hsl(225, 50%, 50%)""]","[""hsl(0, 50%, 50%)"",""hsl(225, 50%, 50%)""]","0.5","0.51","0","circle","black","3","2","2","16.78787878787879","[3,15,17,17,17,17,17,17,17,17,17,17,17,17,17,17,17,17,17,17,16,17,17,17,17,17,17,17,17,17,17,17,17,17,17,17,17,17,17,17,17,17,17,17,16,17,17,17,17,17,17,17,17,17,17,17,17,17,17,17,17,17,17,17,17,17,17,17,17,17,15,17,17,17,17,17,17,17,17,17,17,17,17,17,17,17,17,17,17,16,17,17,17,17,17,17,17,17,17]","99","960","484.5","false","20","20","black","1","false","1","1","1920","969","d","staircase_color","","","","",""
"","","","","","html-keyboard-response","189","422165","0.0-5.0-1.0-1.0-0.0-4.0-0.0-0.0-2.11","null","","null","<p style='font-size: 60px; color: red'>错误!</p>","","","","","","","","","","","","","","","","","","","","","","","","","","","","","","","","","","","","","","","","","","","","","","","",""
"","","","","","html-keyboard-response","190","424815","0.0-5.0-1.0-1.0-0.0-4.0-0.0-1.0","null","","null","<p style='font-size: 35px; color: white'>您的正确率为： 50% 。平均反应时为：1484毫秒。</p>","","","","","","","","","","","","","","","","","","","","","","","","","","","","","","","","","","","","","","","","","","","","","","","",""
"","","","","","html-keyboard-response","191","425963","0.0-5.0-1.0-1.0-0.0-5.0-0.0-0.0-0.0","null","fixation","null","<p style='font-size: 48px; color: white'>+</p >","","","","","","","","","","","","","","","","","","","","","","","","","","","","","","","","","","","","","","","","","","","","","","","",""
"","","","","","rdk","192","427773","0.0-5.0-1.0-1.0-0.0-5.0-0.0-0.0-1.0","1167","color_test","d","","true","[""d"",""k""]","d","3000","true","1","100","0","0","0","3","1","-1","2","300","300","[""hsl(0, 50%, 50%)"",""hsl(225, 50%, 50%)""]","[""hsl(0, 50%, 50%)"",""hsl(225, 50%, 50%)""]","0.5","0.55","0","circle","black","3","2","2","16.685714285714287","[4,16,17,17,17,17,17,17,17,17,17,17,17,17,17,17,17,17,17,17,17,16,17,17,17,17,17,17,17,17,17,16,17,16,17,17,17,17,16,17,17,17,17,17,17,16,17,17,17,16,17,17,17,17,17,17,17,17,16,17,17,17,17,16,17,17,17,17,17,17]","70","960","484.5","false","20","20","black","1","false","1","1","1920","969","d","staircase_color","","","","",""
"","","","","","html-keyboard-response","193","428932","0.0-5.0-1.0-1.0-0.0-5.0-0.0-0.0-2.0","null","","null","<p style='font-size: 60px; color: green'>正确!</p>","","","","","","","","","","","","","","","","","","","","","","","","","","","","","","","","","","","","","","","","","","","","","","","",""
"","","","","","html-keyboard-response","194","430080","0.0-5.0-1.0-1.0-0.0-5.0-0.0-0.0-0.1","null","fixation","null","<p style='font-size: 48px; color: white'>+</p >","","","","","","","","","","","","","","","","","","","","","","","","","","","","","","","","","","","","","","","","","","","","","","","",""
"","","","","","rdk","195","432104","0.0-5.0-1.0-1.0-0.0-5.0-0.0-0.0-1.1","1382","color_test","k","","true","[""d"",""k""]","k","3000","true","1","100","0","0","0","3","1","-1","2","300","300","[""hsl(0, 50%, 50%)"",""hsl(225, 50%, 50%)""]","[""hsl(225, 50%, 50%)"",""hsl(0, 50%, 50%)""]","0.5","0.55","0","circle","black","3","2","2","16.710843373493976","[4,18,17,17,17,17,17,17,17,17,17,17,17,17,17,17,17,17,17,17,17,16,17,17,16,17,17,17,17,17,17,17,17,17,17,17,17,17,17,17,17,17,16,17,16,17,17,16,16,17,17,16,17,17,17,17,16,17,17,17,17,17,17,17,17,16,17,17,17,17,17,17,16,17,17,17,17,17,17,16,17,16,17]","83","960","484.5","false","20","20","black","1","false","1","1","1920","969","k","staircase_color","","","","",""
"","","","","","html-keyboard-response","196","433265","0.0-5.0-1.0-1.0-0.0-5.0-0.0-0.0-2.1","null","","null","<p style='font-size: 60px; color: green'>正确!</p>","","","","","","","","","","","","","","","","","","","","","","","","","","","","","","","","","","","","","","","","","","","","","","","",""
"","","","","","html-keyboard-response","197","434414","0.0-5.0-1.0-1.0-0.0-5.0-0.0-0.0-0.2","null","fixation","null","<p style='font-size: 48px; color: white'>+</p >","","","","","","","","","","","","","","","","","","","","","","","","","","","","","","","","","","","","","","","","","","","","","","","",""
"","","","","","rdk","198","436120","0.0-5.0-1.0-1.0-0.0-5.0-0.0-0.0-1.2","1063","color_test","d","","true","[""d"",""k""]","d","3000","true","1","100","0","0","0","3","1","-1","2","300","300","[""hsl(0, 50%, 50%)"",""hsl(225, 50%, 50%)""]","[""hsl(0, 50%, 50%)"",""hsl(225, 50%, 50%)""]","0.5","0.55","0","circle","black","3","2","2","16.6875","[3,16,17,17,17,17,17,17,17,17,17,17,17,17,17,17,17,17,17,17,16,17,17,17,17,17,16,17,17,17,17,17,17,17,17,17,17,17,17,17,17,17,17,17,16,17,17,17,17,17,17,17,17,17,17,16,17,17,17,17,17,17,16,17]","64","960","484.5","false","20","20","black","1","false","1","1","1920","969","d","staircase_color","","","","",""
"","","","","","html-keyboard-response","199","437265","0.0-5.0-1.0-1.0-0.0-5.0-0.0-0.0-2.2","null","","null","<p style='font-size: 60px; color: green'>正确!</p>","","","","","","","","","","","","","","","","","","","","","","","","","","","","","","","","","","","","","","","","","","","","","","","",""
"","","","","","html-keyboard-response","200","438414","0.0-5.0-1.0-1.0-0.0-5.0-0.0-0.0-0.3","null","fixation","null","<p style='font-size: 48px; color: white'>+</p >","","","","","","","","","","","","","","","","","","","","","","","","","","","","","","","","","","","","","","","","","","","","","","","",""
"","","","","","rdk","201","440776","0.0-5.0-1.0-1.0-0.0-5.0-0.0-0.0-1.3","1720","color_test","d","","false","[""d"",""k""]","k","3000","true","1","100","0","0","0","3","1","-1","2","300","300","[""hsl(0, 50%, 50%)"",""hsl(225, 50%, 50%)""]","[""hsl(225, 50%, 50%)"",""hsl(0, 50%, 50%)""]","0.5","0.55","0","circle","black","3","2","2","16.70873786407767","[4,16,17,17,17,17,17,17,17,17,17,17,16,17,17,16,17,17,16,17,17,17,17,17,17,17,17,17,17,16,17,17,16,17,17,17,17,17,17,17,17,17,17,17,16,17,17,17,17,17,17,17,17,17,17,17,17,17,17,24,8,17,17,17,17,17,17,17,17,17,17,17,17,17,17,17,16,17,17,17,14,17,17,17,17,17,17,17,16,17,16,17,16,17,17,17,16,17,17,17,17,17,17]","103","960","484.5","false","20","20","black","1","false","1","1","1920","969","k","staircase_color","","","","",""
"","","","","","html-keyboard-response","202","441930","0.0-5.0-1.0-1.0-0.0-5.0-0.0-0.0-2.3","null","","null","<p style='font-size: 60px; color: red'>错误!</p>","","","","","","","","","","","","","","","","","","","","","","","","","","","","","","","","","","","","","","","","","","","","","","","",""
"","","","","","html-keyboard-response","203","443079","0.0-5.0-1.0-1.0-0.0-5.0-0.0-0.0-0.4","null","fixation","null","<p style='font-size: 48px; color: white'>+</p >","","","","","","","","","","","","","","","","","","","","","","","","","","","","","","","","","","","","","","","","","","","","","","","",""
"","","","","","rdk","204","444984","0.0-5.0-1.0-1.0-0.0-5.0-0.0-0.0-1.4","1260","color_test","d","","true","[""d"",""k""]","d","3000","true","1","100","0","0","0","3","1","-1","2","300","300","[""hsl(0, 50%, 50%)"",""hsl(225, 50%, 50%)""]","[""hsl(0, 50%, 50%)"",""hsl(225, 50%, 50%)""]","0.5","0.55","0","circle","black","3","2","2","16.68421052631579","[3,18,16,17,17,17,17,17,17,17,17,17,17,17,17,17,17,16,17,17,17,17,17,17,16,17,17,17,16,17,17,17,17,16,17,17,16,17,17,16,17,17,17,17,16,17,17,17,16,17,17,17,17,17,17,17,17,16,17,17,16,17,17,17,17,17,17,17,17,17,17,17,17,17,17,17]","76","960","484.5","false","20","20","black","1","false","1","1","1920","969","d","staircase_color","","","","",""
"","","","","","html-keyboard-response","205","446130","0.0-5.0-1.0-1.0-0.0-5.0-0.0-0.0-2.4","null","","null","<p style='font-size: 60px; color: green'>正确!</p>","","","","","","","","","","","","","","","","","","","","","","","","","","","","","","","","","","","","","","","","","","","","","","","",""
"","","","","","html-keyboard-response","206","447280","0.0-5.0-1.0-1.0-0.0-5.0-0.0-0.0-0.5","null","fixation","null","<p style='font-size: 48px; color: white'>+</p >","","","","","","","","","","","","","","","","","","","","","","","","","","","","","","","","","","","","","","","","","","","","","","","",""
"","","","","","rdk","207","449456","0.0-5.0-1.0-1.0-0.0-5.0-0.0-0.0-1.5","1534","color_test","d","","false","[""d"",""k""]","k","3000","true","1","100","0","0","0","3","1","-1","2","300","300","[""hsl(0, 50%, 50%)"",""hsl(225, 50%, 50%)""]","[""hsl(225, 50%, 50%)"",""hsl(0, 50%, 50%)""]","0.5","0.55","0","circle","black","3","2","2","16.717391304347824","[4,17,17,16,17,17,17,17,17,17,17,17,16,17,17,17,17,17,16,17,17,17,17,17,16,17,17,17,16,17,17,16,17,17,17,17,17,17,17,17,17,17,17,17,16,17,16,17,17,17,17,17,16,17,17,17,17,17,17,17,17,17,17,17,17,17,17,17,17,16,17,17,17,17,17,17,17,17,17,17,17,17,17,16,17,17,16,17,17,16,17,17]","92","960","484.5","false","20","20","black","1","false","1","1","1920","969","k","staircase_color","","","","",""
"","","","","","html-keyboard-response","208","450613","0.0-5.0-1.0-1.0-0.0-5.0-0.0-0.0-2.5","null","","null","<p style='font-size: 60px; color: red'>错误!</p>","","","","","","","","","","","","","","","","","","","","","","","","","","","","","","","","","","","","","","","","","","","","","","","",""
"","","","","","html-keyboard-response","209","451762","0.0-5.0-1.0-1.0-0.0-5.0-0.0-0.0-0.6","null","fixation","null","<p style='font-size: 48px; color: white'>+</p >","","","","","","","","","","","","","","","","","","","","","","","","","","","","","","","","","","","","","","","","","","","","","","","",""
"","","","","","rdk","210","453800","0.0-5.0-1.0-1.0-0.0-5.0-0.0-0.0-1.6","1395","color_test","k","","false","[""d"",""k""]","d","3000","true","1","100","0","0","0","3","1","-1","2","300","300","[""hsl(0, 50%, 50%)"",""hsl(225, 50%, 50%)""]","[""hsl(0, 50%, 50%)"",""hsl(225, 50%, 50%)""]","0.5","0.55","0","circle","black","3","2","2","16.678571428571427","[4,17,17,17,17,17,17,17,17,17,17,16,17,17,17,17,17,17,17,16,17,16,17,17,17,17,16,17,17,17,17,17,17,17,17,17,17,17,17,17,17,17,17,17,16,17,17,16,17,16,17,16,17,17,17,16,17,17,16,17,17,17,17,17,17,17,17,16,17,17,17,17,16,17,17,16,17,17,17,16,17,17,17,17]","84","960","484.5","false","20","20","black","1","false","1","1","1920","969","d","staircase_color","","","","",""
"","","","","","html-keyboard-response","211","454947","0.0-5.0-1.0-1.0-0.0-5.0-0.0-0.0-2.6","null","","null","<p style='font-size: 60px; color: red'>错误!</p>","","","","","","","","","","","","","","","","","","","","","","","","","","","","","","","","","","","","","","","","","","","","","","","",""
"","","","","","html-keyboard-response","212","456097","0.0-5.0-1.0-1.0-0.0-5.0-0.0-0.0-0.7","null","fixation","null","<p style='font-size: 48px; color: white'>+</p >","","","","","","","","","","","","","","","","","","","","","","","","","","","","","","","","","","","","","","","","","","","","","","","",""
"","","","","","rdk","213","458097","0.0-5.0-1.0-1.0-0.0-5.0-0.0-0.0-1.7","1359","color_test","d","","false","[""d"",""k""]","k","3000","true","1","100","0","0","0","3","1","-1","2","300","300","[""hsl(0, 50%, 50%)"",""hsl(225, 50%, 50%)""]","[""hsl(225, 50%, 50%)"",""hsl(0, 50%, 50%)""]","0.5","0.55","0","circle","black","3","2","2","16.817073170731707","[5,16,17,17,17,17,17,17,17,17,17,17,17,17,17,17,17,17,17,17,17,17,17,17,17,17,17,17,17,17,17,17,17,17,16,17,17,17,17,17,17,17,17,17,16,17,17,17,17,17,17,17,17,17,17,17,17,17,17,17,17,17,17,17,17,17,17,17,17,17,17,17,17,17,17,17,17,17,17,17,17,17]","82","960","484.5","false","20","20","black","1","false","1","1","1920","969","k","staircase_color","","","","",""
"","","","","","html-keyboard-response","214","459249","0.0-5.0-1.0-1.0-0.0-5.0-0.0-0.0-2.7","null","","null","<p style='font-size: 60px; color: red'>错误!</p>","","","","","","","","","","","","","","","","","","","","","","","","","","","","","","","","","","","","","","","","","","","","","","","",""
"","","","","","html-keyboard-response","215","460397","0.0-5.0-1.0-1.0-0.0-5.0-0.0-0.0-0.8","null","fixation","null","<p style='font-size: 48px; color: white'>+</p >","","","","","","","","","","","","","","","","","","","","","","","","","","","","","","","","","","","","","","","","","","","","","","","",""
"","","","","","rdk","216","461920","0.0-5.0-1.0-1.0-0.0-5.0-0.0-0.0-1.8","880","color_test","d","","true","[""d"",""k""]","d","3000","true","1","100","0","0","0","3","1","-1","2","300","300","[""hsl(0, 50%, 50%)"",""hsl(225, 50%, 50%)""]","[""hsl(0, 50%, 50%)"",""hsl(225, 50%, 50%)""]","0.5","0.55","0","circle","black","3","2","2","16.69811320754717","[3,16,17,17,17,17,17,17,17,17,17,17,17,17,17,17,17,17,17,17,17,17,17,17,17,17,17,17,17,17,17,17,17,17,17,17,17,17,17,17,17,17,17,17,17,17,17,17,17,17,17,17,16]","53","960","484.5","false","20","20","black","1","false","1","1","1920","969","d","staircase_color","","","","",""
"","","","","","html-keyboard-response","217","463064","0.0-5.0-1.0-1.0-0.0-5.0-0.0-0.0-2.8","null","","null","<p style='font-size: 60px; color: green'>正确!</p>","","","","","","","","","","","","","","","","","","","","","","","","","","","","","","","","","","","","","","","","","","","","","","","",""
"","","","","","html-keyboard-response","218","464212","0.0-5.0-1.0-1.0-0.0-5.0-0.0-0.0-0.9","null","fixation","null","<p style='font-size: 48px; color: white'>+</p >","","","","","","","","","","","","","","","","","","","","","","","","","","","","","","","","","","","","","","","","","","","","","","","",""
"","","","","","rdk","219","466024","0.0-5.0-1.0-1.0-0.0-5.0-0.0-0.0-1.9","1169","color_test","d","","false","[""d"",""k""]","k","3000","true","1","100","0","0","0","3","1","-1","2","300","300","[""hsl(0, 50%, 50%)"",""hsl(225, 50%, 50%)""]","[""hsl(225, 50%, 50%)"",""hsl(0, 50%, 50%)""]","0.5","0.55","0","circle","black","3","2","2","16.67142857142857","[4,17,17,17,17,17,17,17,17,17,17,16,17,17,17,17,17,17,16,17,17,17,17,17,17,17,16,17,17,16,17,17,17,17,17,17,17,16,17,17,17,17,17,17,16,17,17,17,16,17,17,17,17,17,17,17,17,17,16,17,17,17,17,17,16,17,17,16,17,17]","70","960","484.5","false","20","20","black","1","false","1","1","1920","969","k","staircase_color","","","","",""
"","","","","","html-keyboard-response","220","467180","0.0-5.0-1.0-1.0-0.0-5.0-0.0-0.0-2.9","null","","null","<p style='font-size: 60px; color: red'>错误!</p>","","","","","","","","","","","","","","","","","","","","","","","","","","","","","","","","","","","","","","","","","","","","","","","",""
"","","","","","html-keyboard-response","221","468330","0.0-5.0-1.0-1.0-0.0-5.0-0.0-0.0-0.10","null","fixation","null","<p style='font-size: 48px; color: white'>+</p >","","","","","","","","","","","","","","","","","","","","","","","","","","","","","","","","","","","","","","","","","","","","","","","",""
"","","","","","rdk","222","470399","0.0-5.0-1.0-1.0-0.0-5.0-0.0-0.0-1.10","1426","color_test","k","","true","[""d"",""k""]","k","3000","true","1","100","0","0","0","3","1","-1","2","300","300","[""hsl(0, 50%, 50%)"",""hsl(225, 50%, 50%)""]","[""hsl(225, 50%, 50%)"",""hsl(0, 50%, 50%)""]","0.5","0.55","0","circle","black","3","2","2","16.6046511627907","[1,11,17,16,17,17,17,17,17,17,17,17,17,17,17,17,17,17,17,16,17,16,17,16,17,17,16,17,16,17,17,17,17,17,17,17,17,16,17,17,17,17,17,17,15,17,17,17,17,17,17,17,17,17,17,16,17,17,17,17,17,16,18,16,17,17,17,17,17,17,17,17,17,17,17,17,17,17,17,16,17,17,17,17,17,17]","86","960","484.5","false","20","20","black","1","false","1","1","1920","969","k","staircase_color","","","","",""
"","","","","","html-keyboard-response","223","471547","0.0-5.0-1.0-1.0-0.0-5.0-0.0-0.0-2.10","null","","null","<p style='font-size: 60px; color: green'>正确!</p>","","","","","","","","","","","","","","","","","","","","","","","","","","","","","","","","","","","","","","","","","","","","","","","",""
"","","","","","html-keyboard-response","224","472696","0.0-5.0-1.0-1.0-0.0-5.0-0.0-0.0-0.11","null","fixation","null","<p style='font-size: 48px; color: white'>+</p >","","","","","","","","","","","","","","","","","","","","","","","","","","","","","","","","","","","","","","","","","","","","","","","",""
"","","","","","rdk","225","474721","0.0-5.0-1.0-1.0-0.0-5.0-0.0-0.0-1.11","1380","color_test","d","","true","[""d"",""k""]","d","3000","true","1","100","0","0","0","3","1","-1","2","300","300","[""hsl(0, 50%, 50%)"",""hsl(225, 50%, 50%)""]","[""hsl(0, 50%, 50%)"",""hsl(225, 50%, 50%)""]","0.5","0.55","0","circle","black","3","2","2","16.783132530120483","[4,16,17,17,17,17,17,17,17,17,17,17,17,17,17,17,17,17,17,17,17,16,17,17,17,17,17,17,17,17,17,17,17,17,17,17,17,17,17,17,17,17,17,17,17,16,17,17,17,17,17,16,17,17,17,17,17,17,17,17,17,17,17,17,17,16,17,17,17,17,17,17,17,17,17,17,17,17,17,17,17,17,17]","83","960","484.5","false","20","20","black","1","false","1","1","1920","969","d","staircase_color","","","","",""
"","","","","","html-keyboard-response","226","475863","0.0-5.0-1.0-1.0-0.0-5.0-0.0-0.0-2.11","null","","null","<p style='font-size: 60px; color: green'>正确!</p>","","","","","","","","","","","","","","","","","","","","","","","","","","","","","","","","","","","","","","","","","","","","","","","",""
"","","","","","html-keyboard-response","227","478513","0.0-5.0-1.0-1.0-0.0-5.0-0.0-1.0","null","","null","<p style='font-size: 35px; color: white'>您的正确率为： 58% 。平均反应时为：1311毫秒。</p>","","","","","","","","","","","","","","","","","","","","","","","","","","","","","","","","","","","","","","","","","","","","","","","",""
